SessionID,SessionDate,SessionDuration,SessionFrequency,RecordID,Timestamp,timeIntervalSince1970,GyroX,GyroY,GyroZ,AccX,AccY,AccZ,MagX,MagY,MagZ,WatchTimestamp,WatchtImeIntervalSince1970,WatchGyroX,WatchGyroY,WatchGyroZ,WatchAccX,WatchAccY,WatchAccZ
0,2023-08-26 17:28:09.4420,00:55,10,0,2023-08-26 17:28:09.5510,1693088889.5511432,-0.3559066951274872,0.01666766032576561,0.07308885455131531,0.01959228515625,0.261383056640625,-0.970306396484375,122.28385925292969,6.438446044921875,-51.85997009277344,,,,,,,,,,
0,2023-08-26 17:28:09.4420,00:55,10,0,2023-08-26 17:28:09.6510,1693088889.650948,0.06988294422626495,-0.03308657929301262,0.01991059072315693,0.011260986328125,0.244476318359375,-0.974517822265625,122.046875,6.0097808837890625,-51.99273681640625,,,,,,,,,,
0,2023-08-26 17:28:09.4420,00:55,10,0,2023-08-26 17:28:09.7510,1693088889.750783,-0.02213273197412491,-0.013818344101309776,-0.02099103480577469,0.00335693359375,0.2356414794921875,-0.9748077392578125,121.95274353027344,6.1696624755859375,-51.75047302246094,,,,,,,,,,
0,2023-08-26 17:28:09.4420,00:55,10,0,2023-08-26 17:28:09.8510,1693088889.85072,-0.06013497710227966,0.015430089086294174,0.008651545271277428,-0.0060882568359375,0.2537841796875,-0.970184326171875,121.98077392578125,6.4293670654296875,-51.73223876953125,,,,,,,,,,
0,2023-08-26 17:28:09.4420,00:55,10,0,2023-08-26 17:28:09.9510,1693088889.950558,0.06142554432153702,-0.00942146498709917,0.0057614827528595924,-0.0060882568359375,0.2537841796875,-0.970184326171875,122.22752380371094,6.3615875244140625,-51.64599609375,,,,,,,,,,
0,2023-08-26 17:28:09.4420,00:55,10,0,2023-08-26 17:28:10.0500,1693088890.050424,0.21209122240543365,-0.04819069802761078,-0.006207562051713467,0.026580810546875,0.25616455078125,-0.9815521240234375,122.04962158203125,5.7093048095703125,-51.75706481933594,,,,,,,,,,
0,2023-08-26 17:28:09.4420,00:55,10,0,2023-08-26 17:28:10.1510,1693088890.150624,0.1471492350101471,-0.004172374494373798,0.006220611743628979,-0.00091552734375,0.201934814453125,-0.9797821044921875,121.84239196777344,4.6988677978515625,-51.76751708984375,,,,,,,,,,
0,2023-08-26 17:28:09.4420,00:55,10,0,2023-08-26 17:28:10.2500,1693088890.250437,0.1481444537639618,-0.024770326912403107,-0.0021110877860337496,0.0173492431640625,0.2115936279296875,-0.98809814453125,121.99050903320312,3.97119140625,-52.00599670410156,,,,,,,,,,
0,2023-08-26 17:28:09.4420,00:55,10,0,2023-08-26 17:28:10.3510,1693088890.350508,0.13417884707450867,-0.04441247135400772,0.0007848335662856698,0.0037689208984375,0.172271728515625,-0.982269287109375,121.68742370605469,2.94805908203125,-52.01329040527344,,,,,,,,,,
0,2023-08-26 17:28:09.4420,00:55,10,0,2023-08-26 17:28:10.4500,1693088890.450366,0.07686974853277206,-0.03189055621623993,-0.01895212009549141,0.0008087158203125,0.185791015625,-0.9864349365234375,121.5113525390625,2.862701416015625,-51.9853515625,,,,,,,,,,
0,2023-08-26 17:28:09.4420,00:55,10,0,2023-08-26 17:28:10.5500,1693088890.550391,-0.024466993287205696,-0.00959803257137537,0.03385969623923302,-0.0327911376953125,0.14398193359375,-0.9855194091796875,121.52413940429688,2.4275360107421875,-52.288543701171875,,,,,,,,,,
0,2023-08-26 17:28:09.4420,00:55,10,0,2023-08-26 17:28:10.6500,1693088890.650319,-0.0036762275267392397,-0.012256399728357792,0.005992378573864698,0.0094451904296875,0.198944091796875,-0.989044189453125,121.45205688476562,2.965362548828125,-52.0113525390625,,,,,,,,,,
0,2023-08-26 17:28:09.4420,00:55,10,0,2023-08-26 17:28:10.7510,1693088890.75057,-0.08203335106372833,0.026435868814587593,-0.02437111921608448,-0.0077056884765625,0.173919677734375,-0.98699951171875,121.62504577636719,3.1434783935546875,-51.89801025390625,,,,,,,,,,
0,2023-08-26 17:28:09.4420,00:55,10,0,2023-08-26 17:28:10.8500,1693088890.85041,0.08483020216226578,-0.018062356859445572,-0.010354369878768921,0.0055999755859375,0.2042083740234375,-0.9888458251953125,121.42230224609375,3.194122314453125,-51.7467041015625,,,,,,,,,,
0,2023-08-26 17:28:09.4420,00:55,10,0,2023-08-26 17:28:10.9510,1693088890.9508429,0.011951467953622341,-0.0051873051561415195,-0.009383647702634335,-0.0181427001953125,0.1667633056640625,-0.9869384765625,121.15377807617188,2.8915252685546875,-51.799591064453125,,,,,,,,,,
0,2023-08-26 17:28:09.4420,00:55,10,0,2023-08-26 17:28:11.0510,1693088891.0508208,0.03171984478831291,-0.013097425922751427,-0.021046696230769157,-0.0051727294921875,0.1752777099609375,-0.9905242919921875,121.39776611328125,2.8623199462890625,-51.73529052734375,,,,,,,,,,
0,2023-08-26 17:28:09.4420,00:55,10,0,2023-08-26 17:28:11.1500,1693088891.1503959,0.05173323675990105,-0.043420445173978806,-0.021031515672802925,-0.004638671875,0.179443359375,-0.988006591796875,120.97563171386719,2.8183135986328125,-51.948455810546875,,,,,,,,,,
0,2023-08-26 17:28:09.4420,00:55,10,0,2023-08-26 17:28:11.2500,1693088891.2502499,0.05351382493972778,-0.08443978428840637,-0.013272395357489586,-0.0112152099609375,0.1565399169921875,-0.98822021484375,120.57890319824219,2.6213531494140625,-51.96754455566406,,,,,,,,,,
0,2023-08-26 17:28:09.4420,00:55,10,0,2023-08-26 17:28:11.3500,1693088891.350414,-0.28853273391723633,0.058753859251737595,-0.10259242355823517,-0.017608642578125,0.1768646240234375,-0.98388671875,120.57681274414062,3.772979736328125,-52.089111328125,,,,,,,,,,
0,2023-08-26 17:28:09.4420,00:55,10,0,2023-08-26 17:28:11.4510,1693088891.450665,0.04590410739183426,0.02165309712290764,-0.02678527496755123,-0.007293701171875,0.2306365966796875,-0.98358154296875,120.84967041015625,4.0546112060546875,-52.063018798828125,,,,,,,,,,
0,2023-08-26 17:28:09.4420,00:55,10,0,2023-08-26 17:28:11.5500,1693088891.5496979,-0.08467040956020355,0.01817341148853302,-0.004185690078884363,-0.015625,0.18023681640625,-0.98126220703125,121.0653076171875,3.700897216796875,-52.33348083496094,,,,,,,,,,
0,2023-08-26 17:28:09.4420,00:55,10,0,2023-08-26 17:28:11.6510,1693088891.650646,-0.14749358594417572,0.0497041717171669,-0.06772152334451675,-0.0053863525390625,0.1922149658203125,-0.9869537353515625,121.06724548339844,4.675384521484375,-51.83697509765625,,,,,,,,,,
0,2023-08-26 17:28:09.4420,00:55,10,0,2023-08-26 17:28:11.7510,1693088891.750536,-0.08387572318315506,0.05156092718243599,-0.024641163647174835,-0.005096435546875,0.2246246337890625,-0.9859161376953125,121.51545715332031,5.6513824462890625,-51.947662353515625,,,,,,,,,,
0,2023-08-26 17:28:09.4420,00:55,10,0,2023-08-26 17:28:11.8500,1693088891.850322,0.02877066098153591,-0.05499986931681633,0.03837854787707329,-0.00128173828125,0.23748779296875,-0.9766693115234375,121.62214660644531,5.6295166015625,-52.29261779785156,,,,,,,,,,
0,2023-08-26 17:28:09.4420,00:55,10,0,2023-08-26 17:28:11.9500,1693088891.950165,-0.11606775224208832,-0.051955077797174454,-0.08275426924228668,-0.0252227783203125,0.21185302734375,-0.977508544921875,121.12837219238281,6.156158447265625,-52.133056640625,,,,,,,,,,
0,2023-08-26 17:28:09.4420,00:55,10,0,2023-08-26 17:28:12.0500,1693088892.050387,-0.1475156843662262,-0.08582702279090881,-0.03383013606071472,0.0070648193359375,0.243255615234375,-0.986083984375,120.63020324707031,7.23626708984375,-52.226898193359375,,,,,,,,,,
0,2023-08-26 17:28:09.4420,00:55,10,0,2023-08-26 17:28:12.1500,1693088892.1502318,0.19956211745738983,-0.23189447820186615,-0.015599732287228107,-0.0224609375,0.252716064453125,-0.9801025390625,119.48951721191406,6.900665283203125,-52.44035339355469,,,,,,,,,,
0,2023-08-26 17:28:09.4420,00:55,10,0,2023-08-26 17:28:12.2500,1693088892.250395,-0.06597555428743362,-0.38765692710876465,-0.08850403130054474,-0.036407470703125,0.2135772705078125,-0.9892120361328125,117.52409362792969,6.777435302734375,-52.95213317871094,,,,,,,,,,
0,2023-08-26 17:28:09.4420,00:55,10,0,2023-08-26 17:28:12.3500,1693088892.350117,-0.14695829153060913,-0.48901283740997314,-0.2816322147846222,-0.0706634521484375,0.2596282958984375,-0.98046875,114.33601379394531,8.315628051757812,-53.05438232421875,,,,,,,,,,
0,2023-08-26 17:28:09.4420,00:55,10,0,2023-08-26 17:28:12.4500,1693088892.450414,0.04268354922533035,-0.5449908971786499,-0.5206879377365112,-0.1631927490234375,0.2917022705078125,-0.9575347900390625,110.25135803222656,8.191497802734375,-52.96772766113281,,,,,,,,,,
0,2023-08-26 17:28:09.4420,00:55,10,0,2023-08-26 17:28:12.5500,1693088892.550322,-0.01239515095949173,-0.599461555480957,-0.6060742139816284,-0.275390625,0.224578857421875,-0.9506683349609375,104.78224182128906,7.8454437255859375,-53.08534240722656,,,,,,,,,,
0,2023-08-26 17:28:09.4420,00:55,10,0,2023-08-26 17:28:12.6500,1693088892.650226,-0.25324559211730957,-0.5322295427322388,-0.7471604943275452,-0.32159423828125,0.195159912109375,-0.9105072021484375,98.82072448730469,8.76025390625,-51.60981750488281,,,,,,,,,,
0,2023-08-26 17:28:09.4420,00:55,10,0,2023-08-26 17:28:12.7510,1693088892.750622,-0.9642813801765442,-0.7665435075759888,-0.9481231570243835,-0.518951416015625,0.1928558349609375,-0.83673095703125,90.09059143066406,10.757980346679688,-48.93666076660156,,,,,,,,,,
0,2023-08-26 17:28:09.4420,00:55,10,0,2023-08-26 17:28:12.8500,1693088892.850364,-1.2322361469268799,-0.9958912134170532,-0.9629452228546143,-0.4893035888671875,0.3099822998046875,-0.81317138671875,81.15980529785156,14.432205200195312,-42.13288879394531,,,,,,,,,,
0,2023-08-26 17:28:09.4420,00:55,10,0,2023-08-26 17:28:12.9510,1693088892.9509869,-0.6094931960105896,-0.5762380361557007,-1.1678011417388916,-0.6192169189453125,0.298980712890625,-0.7268829345703125,75.96409606933594,12.782730102539062,-35.653839111328125,,,,,,,,,,
0,2023-08-26 17:28:09.4420,00:55,10,0,2023-08-26 17:28:13.0490,1693088893.049295,-1.4825303554534912,-0.04002730920910835,-1.1004387140274048,-0.6106109619140625,0.2894744873046875,-0.7023162841796875,75.55917358398438,11.5498046875,-30.004043579101562,,,,,,,,,,
0,2023-08-26 17:28:09.4420,00:55,10,0,2023-08-26 17:28:13.1500,1693088893.150095,-0.8715471625328064,0.4001365005970001,-1.1536160707473755,-0.6200714111328125,0.3951416015625,-0.7545166015625,77.83430480957031,9.475128173828125,-26.971115112304688,,,,,,,,,,
0,2023-08-26 17:28:09.4420,00:55,10,0,2023-08-26 17:28:13.2510,1693088893.250533,0.17821261286735535,0.2570107579231262,-0.7572397589683533,-0.499176025390625,0.4469451904296875,-0.705291748046875,79.82914733886719,6.9734039306640625,-26.81597900390625,,,,,,,,,,
0,2023-08-26 17:28:09.4420,00:55,10,0,2023-08-26 17:28:13.3500,1693088893.350461,0.33910349011421204,0.23666366934776306,-0.7240445017814636,-0.775177001953125,0.2344818115234375,-0.8441925048828125,77.86665344238281,3.40325927734375,-28.347427368164062,,,,,,,,,,
0,2023-08-26 17:28:09.4420,00:55,10,0,2023-08-26 17:28:13.4500,1693088893.45045,0.5893362164497375,0.1654566079378128,-1.031249761581421,-0.6829833984375,0.067108154296875,-0.7346038818359375,78.16986083984375,-2.338775634765625,-29.975387573242188,,,,,,,,,,
0,2023-08-26 17:28:09.4420,00:55,10,0,2023-08-26 17:28:13.5510,1693088893.550807,0.45656275749206543,0.217445507645607,-0.7979786396026611,-0.7024688720703125,-0.047271728515625,-0.7534027099609375,79.48219299316406,-6.760040283203125,-30.379379272460938,,,,,,,,,,
0,2023-08-26 17:28:09.4420,00:55,10,0,2023-08-26 17:28:13.6500,1693088893.650228,0.5259671211242676,0.20776598155498505,-0.6113938689231873,-0.6678009033203125,-0.122344970703125,-0.7757568359375,80.9617919921875,-10.602554321289062,-31.436614990234375,,,,,,,,,,
0,2023-08-26 17:28:09.4420,00:55,10,0,2023-08-26 17:28:13.7490,1693088893.74891,0.1840723603963852,0.11233159899711609,-0.568010687828064,-0.6111602783203125,-0.1301727294921875,-0.7320404052734375,82.12884521484375,-13.244247436523438,-31.303787231445312,,,,,,,,,,
0,2023-08-26 17:28:09.4420,00:55,10,0,2023-08-26 17:28:13.8500,1693088893.850349,0.2721654772758484,-0.03460191935300827,-0.14822302758693695,-0.6240081787109375,-0.263824462890625,-0.7667694091796875,82.33476257324219,-15.014297485351562,-31.1470947265625,,,,,,,,,,
0,2023-08-26 17:28:09.4420,00:55,10,0,2023-08-26 17:28:13.9500,1693088893.95029,0.0943794995546341,-0.044312071055173874,0.059310995042324066,-0.590301513671875,-0.285675048828125,-0.7418212890625,82.02845764160156,-15.490432739257812,-30.7171630859375,,,,,,,,,,
0,2023-08-26 17:28:09.4420,00:55,10,0,2023-08-26 17:28:14.0500,1693088894.050376,-0.17769356071949005,-0.0194352176040411,0.18169470131397247,-0.633697509765625,-0.211883544921875,-0.7608489990234375,81.80628967285156,-14.554718017578125,-30.730987548828125,,,,,,,,,,
0,2023-08-26 17:28:09.4420,00:55,10,0,2023-08-26 17:28:14.1500,1693088894.150199,0.014149640686810017,0.00347462622448802,0.12484100461006165,-0.6251373291015625,-0.184539794921875,-0.7471160888671875,81.56190490722656,-14.215896606445312,-30.838409423828125,,,,,,,,,,
0,2023-08-26 17:28:09.4420,00:55,10,0,2023-08-26 17:28:14.2500,1693088894.2502608,-0.05576206371188164,0.029765352606773376,0.11157899349927902,-0.632171630859375,-0.170806884765625,-0.744659423828125,81.71916198730469,-13.870574951171875,-30.457122802734375,,,,,,,,,,
0,2023-08-26 17:28:09.4420,00:55,10,0,2023-08-26 17:28:14.3500,1693088894.350097,0.004926049150526524,0.01031655352562666,-0.043417248874902725,-0.62359619140625,-0.171051025390625,-0.76361083984375,81.48348999023438,-13.600509643554688,-30.780624389648438,,,,,,,,,,
0,2023-08-26 17:28:09.4420,00:55,10,0,2023-08-26 17:28:14.4500,1693088894.4502559,0.09205988794565201,0.006334861274808645,-0.05806916207075119,-0.6016387939453125,-0.1921539306640625,-0.76812744140625,81.75917053222656,-14.120254516601562,-30.826736450195312,,,,,,,,,,
0,2023-08-26 17:28:09.4420,00:55,10,0,2023-08-26 17:28:14.5500,1693088894.550307,0.015199459157884121,0.004905809182673693,-0.01798778958618641,-0.6156768798828125,-0.204681396484375,-0.7602996826171875,81.84550476074219,-14.418853759765625,-31.056106567382812,,,,,,,,,,
0,2023-08-26 17:28:09.4420,00:55,10,0,2023-08-26 17:28:14.6500,1693088894.650161,-0.024648088961839676,0.01041402481496334,0.011610317043960094,-0.6162261962890625,-0.205902099609375,-0.76531982421875,81.80755615234375,-14.088668823242188,-30.801284790039062,,,,,,,,,,
0,2023-08-26 17:28:09.4420,00:55,10,0,2023-08-26 17:28:14.7500,1693088894.750181,0.011136806569993496,0.008780175819993019,0.015452992171049118,-0.625213623046875,-0.2091522216796875,-0.76220703125,81.92098999023438,-14.201858520507812,-30.952133178710938,,,,,,,,,,
0,2023-08-26 17:28:09.4420,00:55,10,0,2023-08-26 17:28:14.8490,1693088894.848792,0.01390010304749012,0.008053665049374104,0.004430168308317661,-0.6156005859375,-0.203125,-0.76202392578125,81.80320739746094,-14.324356079101562,-31.063247680664062,,,,,,,,,,
0,2023-08-26 17:28:09.4420,00:55,10,0,2023-08-26 17:28:14.9480,1693088894.948117,0.021764684468507767,0.007617439609020948,0.01068220566958189,-0.6124420166015625,-0.1833648681640625,-0.7630767822265625,81.91815185546875,-14.2572021484375,-30.837905883789062,,,,,,,,,,
0,2023-08-26 17:28:09.4420,00:55,10,0,2023-08-26 17:28:15.0470,1693088895.0471358,0.006996656768023968,-0.009323992766439915,0.002773415995761752,-0.6048736572265625,-0.2014007568359375,-0.763946533203125,81.77963256835938,-14.650360107421875,-31.0714111328125,,,,,,,,,,
0,2023-08-26 17:28:09.4420,00:55,10,0,2023-08-26 17:28:15.1490,1693088895.148839,-0.01016901433467865,0.0008290420519188046,0.0017574200173839927,-0.6137237548828125,-0.2193603515625,-0.7646026611328125,81.94082641601562,-14.557174682617188,-31.03253173828125,,,,,,,,,,
0,2023-08-26 17:28:09.4420,00:55,10,0,2023-08-26 17:28:15.2510,1693088895.2506862,-0.0032647692132741213,-9.800432599149644e-05,-0.0028511802665889263,-0.6268768310546875,-0.19879150390625,-0.7670745849609375,81.80569458007812,-14.36962890625,-31.28802490234375,,,,,,,,,,
0,2023-08-26 17:28:09.4420,00:55,10,0,2023-08-26 17:28:15.3500,1693088895.350477,0.023960726335644722,0.0002348908019484952,-0.05181819200515747,-0.6107330322265625,-0.185821533203125,-0.7608489990234375,81.91438293457031,-14.317489624023438,-31.381011962890625,,,,,,,,,,
0,2023-08-26 17:28:09.4420,00:55,10,0,2023-08-26 17:28:15.4500,1693088895.4497619,0.0070129018276929855,0.004336957819759846,-0.04428836703300476,-0.6109466552734375,-0.208465576171875,-0.75152587890625,82.20176696777344,-14.983627319335938,-31.227874755859375,,,,,,,,,,
0,2023-08-26 17:28:09.4420,00:55,10,0,2023-08-26 17:28:15.5490,1693088895.5490131,-0.01119513064622879,0.006176935974508524,-0.041370876133441925,-0.6134185791015625,-0.21673583984375,-0.763214111328125,81.98135375976562,-14.628646850585938,-31.058563232421875,,,,,,,,,,
0,2023-08-26 17:28:09.4420,00:55,10,0,2023-08-26 17:28:15.6490,1693088895.649035,-0.0031225562561303377,-0.004488225560635328,-0.028970131650567055,-0.61297607421875,-0.2061309814453125,-0.776214599609375,82.17689514160156,-14.9114990234375,-31.514144897460938,,,,,,,,,,
0,2023-08-26 17:28:09.4420,00:55,10,0,2023-08-26 17:28:15.7510,1693088895.750663,0.021202223375439644,0.007935953326523304,-0.04458211362361908,-0.6212005615234375,-0.2226409912109375,-0.7597198486328125,82.47239685058594,-15.087646484375,-31.06793212890625,,,,,,,,,,
0,2023-08-26 17:28:09.4420,00:55,10,0,2023-08-26 17:28:15.8500,1693088895.850184,0.0017451694002375007,0.01721280813217163,-0.0768982395529747,-0.6073455810546875,-0.2074432373046875,-0.751861572265625,82.52375793457031,-15.302810668945312,-31.15887451171875,,,,,,,,,,
0,2023-08-26 17:28:09.4420,00:55,10,0,2023-08-26 17:28:15.9510,1693088895.9511352,0.1139388158917427,0.02117585949599743,-0.07538876682519913,-0.6039276123046875,-0.2398223876953125,-0.7588958740234375,82.68954467773438,-15.998672485351562,-31.210159301757812,,,,,,,,,,
0,2023-08-26 17:28:09.4420,00:55,10,0,2023-08-26 17:28:16.0490,1693088896.0493069,-0.05354525148868561,0.020065853372216225,-0.015041533857584,-0.6018218994140625,-0.241241455078125,-0.7710418701171875,82.89608764648438,-15.520233154296875,-31.024566650390625,,,,,,,,,,
0,2023-08-26 17:28:09.4420,00:55,10,0,2023-08-26 17:28:16.1490,1693088896.148689,0.03726561367511749,0.017681792378425598,-0.00917272549122572,-0.60675048828125,-0.227264404296875,-0.77301025390625,82.90425109863281,-15.826934814453125,-31.223190307617188,,,,,,,,,,
0,2023-08-26 17:28:09.4420,00:55,10,0,2023-08-26 17:28:16.2490,1693088896.2487612,0.022048311308026314,0.02226988598704338,0.0013768542557954788,-0.59906005859375,-0.2254638671875,-0.7558135986328125,83.00259399414062,-15.844406127929688,-31.433975219726562,,,,,,,,,,
0,2023-08-26 17:28:09.4420,00:55,10,0,2023-08-26 17:28:16.3510,1693088896.3509068,0.0010378338629379869,0.015986423939466476,0.01835530437529087,-0.58209228515625,-0.240631103515625,-0.7664031982421875,83.03279113769531,-15.8985595703125,-31.366607666015625,,,,,,,,,,
0,2023-08-26 17:28:09.4420,00:55,10,0,2023-08-26 17:28:16.4490,1693088896.4487019,0.019597137346863747,0.01979953795671463,-0.010867561213672161,-0.602752685546875,-0.2399139404296875,-0.771820068359375,83.18434143066406,-15.800735473632812,-31.48858642578125,,,,,,,,,,
0,2023-08-26 17:28:09.4420,00:55,10,0,2023-08-26 17:28:16.5490,1693088896.54878,-0.017791513353586197,0.020049607381224632,0.004959338344633579,-0.595428466796875,-0.2395782470703125,-0.7627716064453125,83.30316162109375,-15.638290405273438,-31.298019409179688,,,,,,,,,,
0,2023-08-26 17:28:09.4420,00:55,10,0,2023-08-26 17:28:16.6490,1693088896.649409,0.01360342651605606,0.04321910813450813,0.0016674051294103265,-0.5760040283203125,-0.2168731689453125,-0.763275146484375,83.47563171386719,-15.53253173828125,-31.444808959960938,,,,,,,,,,
0,2023-08-26 17:28:09.4420,00:55,10,0,2023-08-26 17:28:16.7500,1693088896.750088,-0.019935624673962593,0.028630845248699188,-0.00765765318647027,-0.5705108642578125,-0.234130859375,-0.773468017578125,83.69906616210938,-15.796340942382812,-31.401031494140625,,,,,,,,,,
0,2023-08-26 17:28:09.4420,00:55,10,0,2023-08-26 17:28:16.8510,1693088896.8506331,-0.057797785848379135,0.027766650542616844,0.0017957695527002215,-0.6132049560546875,-0.2579345703125,-0.7765045166015625,83.96270751953125,-15.482345581054688,-31.604278564453125,,,,,,,,,,
0,2023-08-26 17:28:09.4420,00:55,10,0,2023-08-26 17:28:16.9490,1693088896.948748,0.01792946644127369,0.03381894901394844,-0.019034678116440773,-0.6304473876953125,-0.2742767333984375,-0.7795867919921875,84.06587219238281,-15.998794555664062,-31.747406005859375,,,,,,,,,,
0,2023-08-26 17:28:09.4420,00:55,10,0,2023-08-26 17:28:17.0500,1693088897.050066,0.0412270650267601,0.0350959338247776,-0.021679196506738663,-0.56329345703125,-0.237579345703125,-0.7808074951171875,84.25294494628906,-15.95880126953125,-31.595321655273438,,,,,,,,,,
0,2023-08-26 17:28:09.4420,00:55,10,0,2023-08-26 17:28:17.1480,1693088897.1483588,-0.04434828832745552,0.005733252968639135,0.02333781309425831,-0.5672760009765625,-0.2229156494140625,-0.76995849609375,84.27522277832031,-15.449493408203125,-31.462799072265625,,,,,,,,,,
0,2023-08-26 17:28:09.4420,00:55,10,0,2023-08-26 17:28:17.2510,1693088897.2505732,0.0028778119012713432,0.0417780727148056,-0.0561455599963665,-0.581390380859375,-0.2493896484375,-0.7765045166015625,84.5576171875,-16.054351806640625,-31.631317138671875,,,,,,,,,,
0,2023-08-26 17:28:09.4420,00:55,10,0,2023-08-26 17:28:17.3510,1693088897.350544,0.014760570600628853,0.0349569171667099,-0.012403672561049461,-0.5552978515625,-0.2422943115234375,-0.7848663330078125,84.87164306640625,-15.826309204101562,-31.956375122070312,,,,,,,,,,
0,2023-08-26 17:28:09.4420,00:55,10,0,2023-08-26 17:28:17.4490,1693088897.449317,0.007898669689893723,0.03243250772356987,-0.02731577679514885,-0.5767974853515625,-0.23529052734375,-0.7924041748046875,85.05845642089844,-16.04583740234375,-32.02490234375,,,,,,,,,,
0,2023-08-26 17:28:09.4420,00:55,10,0,2023-08-26 17:28:17.5490,1693088897.548686,-0.013766146264970303,0.01375229749828577,-0.02015586756169796,-0.5753631591796875,-0.258575439453125,-0.78179931640625,85.109130859375,-15.90716552734375,-32.26570129394531,,,,,,,,,,
0,2023-08-26 17:28:09.4420,00:55,10,0,2023-08-26 17:28:17.6490,1693088897.648967,-0.04595604166388512,0.017409617081284523,-0.0046879625879228115,-0.5501251220703125,-0.257537841796875,-0.788604736328125,85.33767700195312,-15.578048706054688,-31.90869140625,,,,,,,,,,
0,2023-08-26 17:28:09.4420,00:55,10,0,2023-08-26 17:28:17.7510,1693088897.750805,-0.004668254870921373,0.016566725447773933,0.011285943910479546,-0.58624267578125,-0.2239227294921875,-0.7998809814453125,85.31993103027344,-15.3087158203125,-32.138458251953125,,,,,,,,,,
0,2023-08-26 17:28:09.4420,00:55,10,0,2023-08-26 17:28:17.8500,1693088897.849619,0.06989466398954391,0.0020240023732185364,-0.022710638120770454,-0.561004638671875,-0.2296600341796875,-0.8019256591796875,85.31761169433594,-15.661224365234375,-32.1759033203125,,,,,,,,,,
0,2023-08-26 17:28:09.4420,00:55,10,0,2023-08-26 17:28:17.9490,1693088897.948752,-0.01158927846699953,0.01284842099994421,6.01874417043291e-05,-0.5613555908203125,-0.2341156005859375,-0.7959136962890625,85.30900573730469,-15.423095703125,-32.22541809082031,,,,,,,,,,
0,2023-08-26 17:28:09.4420,00:55,10,0,2023-08-26 17:28:18.0500,1693088898.050054,-0.023144999518990517,0.01703544333577156,0.002825613832101226,-0.5699310302734375,-0.247802734375,-0.7879180908203125,85.39402770996094,-15.620712280273438,-32.08210754394531,,,,,,,,,,
0,2023-08-26 17:28:09.4420,00:55,10,0,2023-08-26 17:28:18.1500,1693088898.149792,0.005428321193903685,-0.0034823494497686625,0.007261108607053757,-0.5555877685546875,-0.2386474609375,-0.8024444580078125,85.43244934082031,-15.620376586914062,-32.09352111816406,,,,,,,,,,
0,2023-08-26 17:28:09.4420,00:55,10,0,2023-08-26 17:28:18.2500,1693088898.2497802,0.003141731023788452,-0.00618306128308177,0.017886055633425713,-0.56146240234375,-0.249481201171875,-0.7937774658203125,85.48359680175781,-15.58721923828125,-32.26225280761719,,,,,,,,,,
0,2023-08-26 17:28:09.4420,00:55,10,0,2023-08-26 17:28:18.3490,1693088898.348568,-0.009327455423772335,-0.00267807487398386,0.025197498500347137,-0.5544891357421875,-0.237579345703125,-0.7870025634765625,85.48359680175781,-15.58721923828125,-32.26225280761719,,,,,,,,,,
0,2023-08-26 17:28:09.4420,00:55,10,0,2023-08-26 17:28:18.4510,1693088898.4510999,-0.031678300350904465,-0.0035574506036937237,0.024685107171535492,-0.5615386962890625,-0.2256011962890625,-0.7869415283203125,85.46725463867188,-15.464080810546875,-32.2576904296875,,,,,,,,,,
0,2023-08-26 17:28:09.4420,00:55,10,0,2023-08-26 17:28:18.5490,1693088898.5486841,-0.04025101661682129,0.015090801753103733,-0.018248777836561203,-0.5612030029296875,-0.2018280029296875,-0.8019866943359375,85.36859130859375,-15.228805541992188,-32.26502990722656,,,,,,,,,,
0,2023-08-26 17:28:09.4420,00:55,10,0,2023-08-26 17:28:18.6510,1693088898.6508121,-0.0065532405860722065,-0.0396568663418293,-0.029944317415356636,-0.595733642578125,-0.23370361328125,-0.81561279296875,85.58999633789062,-15.290451049804688,-32.40522766113281,,,,,,,,,,
0,2023-08-26 17:28:09.4420,00:55,10,0,2023-08-26 17:28:18.7480,1693088898.747912,0.06036773696541786,-0.029622873291373253,-0.09646608680486679,-0.557464599609375,-0.299346923828125,-0.737060546875,85.38438415527344,-15.261825561523438,-32.20558166503906,,,,,,,,,,
0,2023-08-26 17:28:09.4420,00:55,10,0,2023-08-26 17:28:18.8480,1693088898.8483381,0.03721155226230621,0.005772667936980724,-0.054310910403728485,-0.5428924560546875,-0.19012451171875,-0.7822723388671875,85.32749938964844,-15.70220947265625,-31.983367919921875,,,,,,,,,,
0,2023-08-26 17:28:09.4420,00:55,10,0,2023-08-26 17:28:18.9490,1693088898.949152,0.017978467047214508,-0.006488792132586241,-0.03309110924601555,-0.5546112060546875,-0.231964111328125,-0.7752685546875,85.4884033203125,-15.706161499023438,-32.110748291015625,,,,,,,,,,
0,2023-08-26 17:28:09.4420,00:55,10,0,2023-08-26 17:28:19.0490,1693088899.0486112,0.002584864152595401,0.0018865832826122642,0.006882673595100641,-0.56866455078125,-0.264129638671875,-0.7848968505859375,85.54350280761719,-15.666549682617188,-32.35658264160156,,,,,,,,,,
0,2023-08-26 17:28:09.4420,00:55,10,0,2023-08-26 17:28:19.1500,1693088899.1500978,-0.010757839307188988,0.008553540334105492,0.010687531903386116,-0.5731353759765625,-0.2427825927734375,-0.7913665771484375,85.59925842285156,-15.495574951171875,-32.17002868652344,,,,,,,,,,
0,2023-08-26 17:28:09.4420,00:55,10,0,2023-08-26 17:28:19.2500,1693088899.2500849,-0.003990747034549713,-0.007028614636510611,0.0097463708370924,-0.57598876953125,-0.241851806640625,-0.801300048828125,85.58692932128906,-15.461593627929688,-32.00044250488281,,,,,,,,,,
0,2023-08-26 17:28:09.4420,00:55,10,0,2023-08-26 17:28:19.3500,1693088899.349924,-0.012849219143390656,-0.019452527165412903,0.006331665441393852,-0.569488525390625,-0.251373291015625,-0.80535888671875,85.62979125976562,-15.748626708984375,-31.8489990234375,,,,,,,,,,
0,2023-08-26 17:28:09.4420,00:55,10,0,2023-08-26 17:28:19.4500,1693088899.4500508,0.02683347836136818,-0.028780249878764153,0.000746750389225781,-0.559173583984375,-0.241455078125,-0.798248291015625,85.33633422851562,-15.301620483398438,-32.027313232421875,,,,,,,,,,
0,2023-08-26 17:28:09.4420,00:55,10,0,2023-08-26 17:28:19.5500,1693088899.550075,-0.016111325472593307,-0.005502090789377689,0.000568318588193506,-0.562255859375,-0.23150634765625,-0.778350830078125,85.39105224609375,-15.594741821289062,-32.238616943359375,,,,,,,,,,
0,2023-08-26 17:28:09.4420,00:55,10,0,2023-08-26 17:28:19.6500,1693088899.649922,-0.05261500924825668,0.005988117773085833,0.004463990684598684,-0.57220458984375,-0.24444580078125,-0.7865753173828125,85.34019470214844,-15.414093017578125,-32.27668762207031,,,,,,,,,,
0,2023-08-26 17:28:09.4420,00:55,10,0,2023-08-26 17:28:19.7500,1693088899.750339,0.030473221093416214,-0.004899950232356787,-0.032645028084516525,-0.56219482421875,-0.2209014892578125,-0.79351806640625,85.31259155273438,-15.249481201171875,-32.425994873046875,,,,,,,,,,
0,2023-08-26 17:28:09.4420,00:55,10,0,2023-08-26 17:28:19.8500,1693088899.850059,0.06180104985833168,-0.01811588741838932,-0.011365040205419064,-0.5517578125,-0.2164764404296875,-0.7998809814453125,85.25802612304688,-15.376144409179688,-32.34471130371094,,,,,,,,,,
0,2023-08-26 17:28:09.4420,00:55,10,0,2023-08-26 17:28:19.9500,1693088899.9503598,0.02925162762403488,-0.014252705499529839,0.0038538603112101555,-0.5629730224609375,-0.2230072021484375,-0.7996826171875,85.33015441894531,-15.50494384765625,-32.2388916015625,,,,,,,,,,
0,2023-08-26 17:28:09.4420,00:55,10,0,2023-08-26 17:28:20.0490,1693088900.0488548,-0.0014599448768422008,-0.008429969660937786,0.007860586047172546,-0.5732574462890625,-0.2337646484375,-0.7922821044921875,85.21882629394531,-15.608901977539062,-31.863449096679688,,,,,,,,,,
0,2023-08-26 17:28:09.4420,00:55,10,0,2023-08-26 17:28:20.1500,1693088900.150354,-0.017057813704013824,-0.00395585922524333,-0.011502458713948727,-0.5768890380859375,-0.230194091796875,-0.801055908203125,85.18840026855469,-15.42181396484375,-32.444244384765625,,,,,,,,,,
0,2023-08-26 17:28:09.4420,00:55,10,0,2023-08-26 17:28:20.2500,1693088900.25021,-0.02226455882191658,-0.001169127761386335,0.0032487902790308,-0.5745391845703125,-0.2397003173828125,-0.7903900146484375,85.22541809082031,-15.608810424804688,-31.782485961914062,,,,,,,,,,
0,2023-08-26 17:28:09.4420,00:55,10,0,2023-08-26 17:28:20.3480,1693088900.3483748,-0.017486847937107086,0.0003579288604669273,-0.017437579110264778,-0.5747528076171875,-0.2439422607421875,-0.7891387939453125,85.06503295898438,-15.505081176757812,-32.404937744140625,,,,,,,,,,
0,2023-08-26 17:28:09.4420,00:55,10,0,2023-08-26 17:28:20.4490,1693088900.448642,0.005110339727252722,-0.0016799219883978367,-0.007318633142858744,-0.5514373779296875,-0.23370361328125,-0.780303955078125,85.22615051269531,-15.331314086914062,-32.27867126464844,,,,,,,,,,
0,2023-08-26 17:28:09.4420,00:55,10,0,2023-08-26 17:28:20.5500,1693088900.549636,-0.002570749493315816,-0.009755158796906471,-0.0036128442734479904,-0.548431396484375,-0.2350616455078125,-0.7861328125,85.28562927246094,-15.45892333984375,-31.95623779296875,,,,,,,,,,
0,2023-08-26 17:28:09.4420,00:55,10,0,2023-08-26 17:28:20.6500,1693088900.649935,-0.00026604978484101593,-0.003308444982394576,0.012012987397611141,-0.5749359130859375,-0.2525177001953125,-0.788238525390625,85.37120056152344,-15.424942016601562,-32.25364685058594,,,,,,,,,,
0,2023-08-26 17:28:09.4420,00:55,10,0,2023-08-26 17:28:20.7500,1693088900.749944,0.001055943313986063,-0.0004799016169272363,0.00615296745672822,-0.571136474609375,-0.242279052734375,-0.7938995361328125,85.33123779296875,-15.5867919921875,-32.27960205078125,,,,,,,,,,
0,2023-08-26 17:28:09.4420,00:55,10,0,2023-08-26 17:28:20.8500,1693088900.8503032,-0.0007025419035926461,0.0009693906176835299,0.014848721213638783,-0.566558837890625,-0.240478515625,-0.792510986328125,85.27253723144531,-15.482498168945312,-31.836471557617188,,,,,,,,,,
0,2023-08-26 17:28:09.4420,00:55,10,0,2023-08-26 17:28:20.9500,1693088900.95016,-0.025286979973316193,0.006060289219021797,-0.00746164470911026,-0.5759124755859375,-0.2348480224609375,-0.790283203125,85.24069213867188,-15.581817626953125,-31.7828369140625,,,,,,,,,,
0,2023-08-26 17:28:09.4420,00:55,10,0,2023-08-26 17:28:21.0500,1693088901.049738,0.029106220230460167,0.004849616438150406,0.0011635350529104471,-0.56903076171875,-0.240478515625,-0.7964630126953125,85.32682800292969,-15.369155883789062,-32.221160888671875,,,,,,,,,,
0,2023-08-26 17:28:09.4420,00:55,10,0,2023-08-26 17:28:21.1500,1693088901.149718,0.013038303703069687,-0.005854693241417408,0.0014628743520006537,-0.5619659423828125,-0.2430267333984375,-0.8103485107421875,85.36111450195312,-15.662734985351562,-31.916854858398438,,,,,,,,,,
0,2023-08-26 17:28:09.4420,00:55,10,0,2023-08-26 17:28:21.2510,1693088901.2506042,-0.011692342348396778,-0.0003177151083946228,0.010611898265779018,-0.564056396484375,-0.251068115234375,-0.8036651611328125,85.43205261230469,-15.408172607421875,-31.4490966796875,,,,,,,,,,
0,2023-08-26 17:28:09.4420,00:55,10,0,2023-08-26 17:28:21.3500,1693088901.3497171,0.024023577570915222,-0.006937800906598568,-0.011261975392699242,-0.5650787353515625,-0.24798583984375,-0.79962158203125,85.39390563964844,-15.401947021484375,-32.33058166503906,,,,,,,,,,
0,2023-08-26 17:28:09.4420,00:55,10,0,2023-08-26 17:28:21.4500,1693088901.450111,0.003899666713550687,-0.007879761047661304,-0.014255900867283344,-0.568695068359375,-0.2436065673828125,-0.797637939453125,85.36878967285156,-15.435592651367188,-31.999069213867188,,,,,,,,,,
0,2023-08-26 17:28:09.4420,00:55,10,0,2023-08-26 17:28:21.5500,1693088901.550035,-0.02882898412644863,-0.0027236149180680513,-0.0073354109190404415,-0.5611572265625,-0.242767333984375,-0.7816925048828125,85.421875,-15.610885620117188,-31.929244995117188,,,,,,,,,,
0,2023-08-26 17:28:09.4420,00:55,10,0,2023-08-26 17:28:21.6500,1693088901.649869,-0.02912219800055027,-0.002895122393965721,-0.0038181741256266832,-0.5566253662109375,-0.245880126953125,-0.7806396484375,85.35406494140625,-15.654052734375,-32.20121765136719,,,,,,,,,,
0,2023-08-26 17:28:09.4420,00:55,10,0,2023-08-26 17:28:21.7500,1693088901.749865,0.0023366576060652733,-0.011577560566365719,-0.005756955128163099,-0.565093994140625,-0.2496185302734375,-0.7868194580078125,85.31414794921875,-15.3048095703125,-32.4176025390625,,,,,,,,,,
0,2023-08-26 17:28:09.4420,00:55,10,0,2023-08-26 17:28:21.8490,1693088901.849364,0.03181944787502289,-0.010185525752604008,-0.0202738456428051,-0.567718505859375,-0.2504425048828125,-0.79290771484375,85.26335144042969,-15.693649291992188,-32.229217529296875,,,,,,,,,,
0,2023-08-26 17:28:09.4420,00:55,10,0,2023-08-26 17:28:21.9490,1693088901.948833,0.018426677212119102,-0.009444634430110455,-0.025419605895876884,-0.5725555419921875,-0.243865966796875,-0.780731201171875,85.2930908203125,-15.829208374023438,-31.61798095703125,,,,,,,,,,
0,2023-08-26 17:28:09.4420,00:55,10,0,2023-08-26 17:28:22.0480,1693088902.048472,0.015413577668368816,-0.010673683136701584,-0.018273012712597847,-0.5748291015625,-0.2418212890625,-0.7873992919921875,85.306396484375,-15.9222412109375,-31.8076171875,,,,,,,,,,
0,2023-08-26 17:28:09.4420,00:55,10,0,2023-08-26 17:28:22.1500,1693088902.1502051,-0.0036719664931297302,-0.013682789169251919,-0.020012324675917625,-0.5604248046875,-0.241729736328125,-0.7888336181640625,85.34738159179688,-15.854339599609375,-31.832626342773438,,,,,,,,,,
0,2023-08-26 17:28:09.4420,00:55,10,0,2023-08-26 17:28:22.2500,1693088902.249995,-0.013087572529911995,-0.011784221045672894,-0.02167040854692459,-0.5594482421875,-0.2290496826171875,-0.7725372314453125,85.30810546875,-16.040695190429688,-31.995330810546875,,,,,,,,,,
0,2023-08-26 17:28:09.4420,00:55,10,0,2023-08-26 17:28:22.3490,1693088902.349494,0.00015446334145963192,-0.009407083503901958,-0.04230271652340889,-0.5685272216796875,-0.23828125,-0.784271240234375,85.23138427734375,-16.164932250976562,-32.12310791015625,,,,,,,,,,
0,2023-08-26 17:28:09.4420,00:55,10,0,2023-08-26 17:28:22.4500,1693088902.450001,0.0006846986943855882,-0.014147510752081871,-0.02196122519671917,-0.5605926513671875,-0.2420654296875,-0.791351318359375,85.09538269042969,-16.049545288085938,-31.792449951171875,,,,,,,,,,
0,2023-08-26 17:28:09.4420,00:55,10,0,2023-08-26 17:28:22.5500,1693088902.55023,-0.016887903213500977,-0.004547880031168461,-0.01925625279545784,-0.5620880126953125,-0.25103759765625,-0.782958984375,85.15885925292969,-16.350936889648438,-31.796661376953125,,,,,,,,,,
0,2023-08-26 17:28:09.4420,00:55,10,0,2023-08-26 17:28:22.6500,1693088902.64978,-0.041182857006788254,0.0033683660440146923,-0.005554821342229843,-0.5764007568359375,-0.2551116943359375,-0.7824554443359375,85.16078186035156,-16.703506469726562,-31.783355712890625,,,,,,,,,,
0,2023-08-26 17:28:09.4420,00:55,10,0,2023-08-26 17:28:22.7500,1693088902.749872,-0.0021699436474591494,-0.0004801679460797459,-0.006274673622101545,-0.5615386962890625,-0.254150390625,-0.77996826171875,85.24617004394531,-16.539154052734375,-31.70404052734375,,,,,,,,,,
0,2023-08-26 17:28:09.4420,00:55,10,0,2023-08-26 17:28:22.8500,1693088902.8499088,0.003260241821408272,0.005338306538760662,-0.028064657002687454,-0.562774658203125,-0.247344970703125,-0.7756195068359375,85.15437316894531,-16.566452026367188,-31.590591430664062,,,,,,,,,,
0,2023-08-26 17:28:09.4420,00:55,10,0,2023-08-26 17:28:22.9490,1693088902.949197,-0.0030858046375215054,0.006284527480602264,-0.02117159776389599,-0.5597686767578125,-0.248260498046875,-0.77789306640625,85.04917907714844,-16.283096313476562,-32.04289245605469,,,,,,,,,,
0,2023-08-26 17:28:09.4420,00:55,10,0,2023-08-26 17:28:23.0480,1693088903.048295,0.0037326866295188665,0.009313606657087803,-0.02875441685318947,-0.5667877197265625,-0.2558441162109375,-0.786163330078125,85.10398864746094,-16.806594848632812,-31.89691162109375,,,,,,,,,,
0,2023-08-26 17:28:09.4420,00:55,10,0,2023-08-26 17:28:23.1500,1693088903.1497731,-0.004334294702857733,0.0076126460917294025,-0.03482429310679436,-0.5568084716796875,-0.25537109375,-0.7770843505859375,85.23350524902344,-16.5772705078125,-32.2093505859375,,,,,,,,,,
0,2023-08-26 17:28:09.4420,00:55,10,0,2023-08-26 17:28:23.2500,1693088903.249675,-0.0027798074297606945,0.018510833382606506,-0.033729732036590576,-0.5573577880859375,-0.2566986083984375,-0.7798614501953125,85.28715515136719,-16.795516967773438,-32.173614501953125,,,,,,,,,,
0,2023-08-26 17:28:09.4420,00:55,10,0,2023-08-26 17:28:23.3480,1693088903.348258,-0.02582200989127159,0.007546333130449057,-0.03705895319581032,-0.5584259033203125,-0.2554931640625,-0.78826904296875,85.27925109863281,-16.830154418945312,-32.07841491699219,,,,,,,,,,
0,2023-08-26 17:28:09.4420,00:55,10,0,2023-08-26 17:28:23.4500,1693088903.4499269,0.029564017429947853,0.005795304663479328,-0.04614991694688797,-0.5602874755859375,-0.2722320556640625,-0.7960662841796875,85.42681884765625,-16.804275512695312,-32.39961242675781,,,,,,,,,,
0,2023-08-26 17:28:09.4420,00:55,10,0,2023-08-26 17:28:23.5500,1693088903.549804,0.0011544802691787481,-0.0016215987270697951,-0.014634336344897747,-0.548309326171875,-0.28387451171875,-0.7917938232421875,85.54205322265625,-16.995834350585938,-32.152496337890625,,,,,,,,,,
0,2023-08-26 17:28:09.4420,00:55,10,0,2023-08-26 17:28:23.6500,1693088903.649641,-0.0013227921444922686,0.0018647453980520368,-0.0013606089632958174,-0.540313720703125,-0.2728271484375,-0.7850799560546875,85.53749084472656,-17.119537353515625,-31.998062133789062,,,,,,,,,,
0,2023-08-26 17:28:09.4420,00:55,10,0,2023-08-26 17:28:23.7480,1693088903.748465,0.02045733854174614,0.003180080559104681,0.0016961672808974981,-0.5544281005859375,-0.268585205078125,-0.7935333251953125,85.53231811523438,-17.072219848632812,-32.233612060546875,,,,,,,,,,
0,2023-08-26 17:28:09.4420,00:55,10,0,2023-08-26 17:28:23.8500,1693088903.849968,0.026446521282196045,-0.0008671252289786935,0.018570488318800926,-0.5429534912109375,-0.27264404296875,-0.7912139892578125,85.65020751953125,-17.303512573242188,-32.05934143066406,,,,,,,,,,
0,2023-08-26 17:28:09.4420,00:55,10,0,2023-08-26 17:28:23.9500,1693088903.9504762,-0.008186557330191135,-0.004522047471255064,-0.004583832807838917,-0.5428009033203125,-0.2563934326171875,-0.78045654296875,85.75987243652344,-17.214004516601562,-31.81219482421875,,,,,,,,,,
0,2023-08-26 17:28:09.4420,00:55,10,0,2023-08-26 17:28:24.0500,1693088904.04988,0.009831591509282589,-0.010341321118175983,0.00058323226403445,-0.55206298828125,-0.2710113525390625,-0.774261474609375,85.76315307617188,-17.627761840820312,-32.092132568359375,,,,,,,,,,
0,2023-08-26 17:28:09.4420,00:55,10,0,2023-08-26 17:28:24.1500,1693088904.149856,0.023437416180968285,-0.012613795697689056,-0.02189997211098671,-0.5374298095703125,-0.26226806640625,-0.8017120361328125,85.77032470703125,-17.498703002929688,-32.12580871582031,,,,,,,,,,
0,2023-08-26 17:28:09.4420,00:55,10,0,2023-08-26 17:28:24.2500,1693088904.2500172,-0.039200931787490845,-0.005991579964756966,-0.012093947269022465,-0.5498809814453125,-0.2864227294921875,-0.7797088623046875,85.70751953125,-17.591217041015625,-31.823822021484375,,,,,,,,,,
0,2023-08-26 17:28:09.4420,00:55,10,0,2023-08-26 17:28:24.3500,1693088904.349621,0.026443324983119965,-0.010761034674942493,-0.025133049115538597,-0.5594482421875,-0.276123046875,-0.7906646728515625,85.6866455078125,-17.657669067382812,-31.825637817382812,,,,,,,,,,
0,2023-08-26 17:28:09.4420,00:55,10,0,2023-08-26 17:28:24.4500,1693088904.449825,-0.029232453554868698,0.0022027005907148123,0.0037441381718963385,-0.553558349609375,-0.27618408203125,-0.7812652587890625,85.57014465332031,-17.6165771484375,-32.00114440917969,,,,,,,,,,
0,2023-08-26 17:28:09.4420,00:55,10,0,2023-08-26 17:28:24.5500,1693088904.5497189,0.012359730899333954,0.002552373567596078,0.003605920122936368,-0.5529632568359375,-0.2806243896484375,-0.7796630859375,85.65547180175781,-17.5311279296875,-32.11669921875,,,,,,,,,,
0,2023-08-26 17:28:09.4420,00:55,10,0,2023-08-26 17:28:24.6500,1693088904.6500769,-0.007808121852576733,0.006683468818664551,0.005767341703176498,-0.551239013671875,-0.2785797119140625,-0.7796173095703125,85.58885192871094,-17.429641723632812,-32.03446960449219,,,,,,,,,,
0,2023-08-26 17:28:09.4420,00:55,10,0,2023-08-26 17:28:24.7500,1693088904.7500792,-0.019650666043162346,-0.0008013451588340104,-0.015088671818375587,-0.55999755859375,-0.2713623046875,-0.78961181640625,85.7974853515625,-17.313491821289062,-32.32521057128906,,,,,,,,,,
0,2023-08-26 17:28:09.4420,00:55,10,0,2023-08-26 17:28:24.8500,1693088904.849827,0.02219877950847149,-0.0018674085149541497,-0.02365712635219097,-0.553009033203125,-0.276580810546875,-0.7840728759765625,85.68376159667969,-17.186553955078125,-32.30430603027344,,,,,,,,,,
0,2023-08-26 17:28:09.4420,00:55,10,0,2023-08-26 17:28:24.9500,1693088904.9502292,0.01022680476307869,-0.0022474415600299835,-0.022411299869418144,-0.5601348876953125,-0.2749481201171875,-0.78680419921875,85.68327331542969,-17.301803588867188,-32.5537109375,,,,,,,,,,
0,2023-08-26 17:28:09.4420,00:55,10,0,2023-08-26 17:28:25.0500,1693088905.050054,0.002234658459201455,0.0005249090609140694,-0.004181162919849157,-0.5349578857421875,-0.2791290283203125,-0.78253173828125,85.72994995117188,-17.195098876953125,-32.24617004394531,,,,,,,,,,
0,2023-08-26 17:28:09.4420,00:55,10,0,2023-08-26 17:28:25.1490,1693088905.1494632,-0.030167490243911743,-0.006200638134032488,-0.00977460015565157,-0.544891357421875,-0.2671356201171875,-0.7857208251953125,85.59974670410156,-17.0546875,-32.253326416015625,,,,,,,,,,
0,2023-08-26 17:28:09.4420,00:55,10,0,2023-08-26 17:28:25.2500,1693088905.249589,-0.027785291895270348,-0.0031015174463391304,0.007984689436852932,-0.5435791015625,-0.26751708984375,-0.7823638916015625,85.94256591796875,-17.149017333984375,-32.35089111328125,,,,,,,,,,
0,2023-08-26 17:28:09.4420,00:55,10,0,2023-08-26 17:28:25.3490,1693088905.349423,0.006334861274808645,-0.0004620584368240088,-0.013624998740851879,-0.5482330322265625,-0.282470703125,-0.789337158203125,85.87718200683594,-16.865509033203125,-32.47541809082031,,,,,,,,,,
0,2023-08-26 17:28:09.4420,00:55,10,0,2023-08-26 17:28:25.4500,1693088905.44962,0.00920521654188633,-0.004762264434248209,-0.026638802140951157,-0.5502166748046875,-0.2733001708984375,-0.787078857421875,85.71084594726562,-17.01666259765625,-32.279266357421875,,,,,,,,,,
0,2023-08-26 17:28:09.4420,00:55,10,0,2023-08-26 17:28:25.5500,1693088905.549742,0.005602492019534111,-6.391586794052273e-05,-0.030420223250985146,-0.551788330078125,-0.2680511474609375,-0.791748046875,86.01718139648438,-17.373382568359375,-32.16227722167969,,,,,,,,,,
0,2023-08-26 17:28:09.4420,00:55,10,0,2023-08-26 17:28:25.6500,1693088905.64974,-0.016935840249061584,-0.0025752766523510218,-0.01082947850227356,-0.541290283203125,-0.2816925048828125,-0.792327880859375,85.91160583496094,-17.112152099609375,-32.30937194824219,,,,,,,,,,
0,2023-08-26 17:28:09.4420,00:55,10,0,2023-08-26 17:28:25.7500,1693088905.749918,-0.007908523082733154,0.0052472264505922794,0.009699499234557152,-0.546630859375,-0.2779388427734375,-0.78948974609375,85.93336486816406,-17.250106811523438,-31.720779418945312,,,,,,,,,,
0,2023-08-26 17:28:09.4420,00:55,10,0,2023-08-26 17:28:25.8500,1693088905.849793,-0.013411945663392544,0.009525594301521778,0.03753938525915146,-0.5455169677734375,-0.2823944091796875,-0.792633056640625,86.09780883789062,-16.953765869140625,-31.86932373046875,,,,,,,,,,
0,2023-08-26 17:28:09.4420,00:55,10,0,2023-08-26 17:28:25.9500,1693088905.9499311,0.005811550188809633,-0.006936203222721815,0.005130046978592873,-0.541839599609375,-0.27691650390625,-0.7938995361328125,86.08541870117188,-17.145004272460938,-32.28045654296875,,,,,,,,,,
0,2023-08-26 17:28:09.4420,00:55,10,0,2023-08-26 17:28:26.0500,1693088906.05024,-0.009912285953760147,-0.017896708101034164,0.006254167295992374,-0.55035400390625,-0.2704010009765625,-0.8019561767578125,86.04083251953125,-17.125076293945312,-32.041961669921875,,,,,,,,,,
0,2023-08-26 17:28:09.4420,00:55,10,0,2023-08-26 17:28:26.1500,1693088906.1498098,0.020848557353019714,-0.011001784354448318,-0.015281484462320805,-0.555267333984375,-0.2852783203125,-0.78814697265625,85.93515014648438,-16.8720703125,-31.9449462890625,,,,,,,,,,
0,2023-08-26 17:28:09.4420,00:55,10,0,2023-08-26 17:28:26.2510,1693088906.2505388,0.027391944080591202,-0.0007251787465065718,-0.012840431183576584,-0.5557098388671875,-0.2733306884765625,-0.7917022705078125,85.94125366210938,-17.29205322265625,-31.911651611328125,,,,,,,,,,
0,2023-08-26 17:28:09.4420,00:55,10,0,2023-08-26 17:28:26.3500,1693088906.349578,-0.0019204054260626435,0.00634924229234457,-0.015421300195157528,-0.5489044189453125,-0.2740631103515625,-0.7862548828125,85.89453125,-17.359527587890625,-32.184844970703125,,,,,,,,,,
0,2023-08-26 17:28:09.4420,00:55,10,0,2023-08-26 17:28:26.4500,1693088906.4496431,0.0060933125205338,0.00310577847994864,-0.00612393906340003,-0.5445709228515625,-0.2850799560546875,-0.798187255859375,86.0228271484375,-17.06671142578125,-32.39939880371094,,,,,,,,,,
0,2023-08-26 17:28:09.4420,00:55,10,0,2023-08-26 17:28:26.5490,1693088906.54949,0.0020367854740470648,-0.01152562815696001,-0.016202405095100403,-0.5464935302734375,-0.26556396484375,-0.7987060546875,85.8094482421875,-17.278533935546875,-32.36311340332031,,,,,,,,,,
0,2023-08-26 17:28:09.4420,00:55,10,0,2023-08-26 17:28:26.6480,1693088906.648227,-0.026869164779782295,-0.0033222935162484646,-0.004367318004369736,-0.538330078125,-0.27801513671875,-0.783843994140625,86.08151245117188,-17.484481811523438,-32.1859130859375,,,,,,,,,,
0,2023-08-26 17:28:09.4420,00:55,10,0,2023-08-26 17:28:26.7500,1693088906.749553,0.009575395844876766,-0.008502141572535038,0.014130466617643833,-0.53265380859375,-0.2782135009765625,-0.79010009765625,85.97026062011719,-17.442962646484375,-32.242919921875,,,,,,,,,,
0,2023-08-26 17:28:09.4420,00:55,10,0,2023-08-26 17:28:26.8500,1693088906.849649,0.0070397998206317425,-0.012198076583445072,-0.001478587044402957,-0.5401611328125,-0.2648468017578125,-0.79803466796875,85.98300170898438,-17.097305297851562,-31.952301025390625,,,,,,,,,,
0,2023-08-26 17:28:09.4420,00:55,10,0,2023-08-26 17:28:26.9490,1693088906.949346,0.0021430456545203924,-0.004233360756188631,-0.004089283756911755,-0.5430908203125,-0.2751922607421875,-0.791259765625,85.83158874511719,-17.021759033203125,-32.4051513671875,,,,,,,,,,
0,2023-08-26 17:28:09.4420,00:55,10,0,2023-08-26 17:28:27.0500,1693088907.0498161,0.005543369799852371,-0.005331382155418396,0.009305085055530071,-0.54754638671875,-0.2730560302734375,-0.797943115234375,85.86669921875,-17.207809448242188,-32.38859558105469,,,,,,,,,,
0,2023-08-26 17:28:09.4420,00:55,10,0,2023-08-26 17:28:27.1500,1693088907.149516,-0.004659466445446014,-0.0037731665652245283,-0.011801797896623611,-0.5446929931640625,-0.269866943359375,-0.7859649658203125,86.04510498046875,-17.298477172851562,-31.929412841796875,,,,,,,,,,
0,2023-08-26 17:28:09.4420,00:55,10,0,2023-08-26 17:28:27.2500,1693088907.250142,0.0009259810904040933,-0.00512711750343442,0.007456584833562374,-0.5474700927734375,-0.280426025390625,-0.7874908447265625,86.02256774902344,-16.967544555664062,-32.06767272949219,,,,,,,,,,
0,2023-08-26 17:28:09.4420,00:55,10,0,2023-08-26 17:28:27.3500,1693088907.349565,-0.0073567163199186325,-0.003935885615646839,0.007148989476263523,-0.541412353515625,-0.280181884765625,-0.78564453125,86.05332946777344,-16.957046508789062,-31.825363159179688,,,,,,,,,,
0,2023-08-26 17:28:09.4420,00:55,10,0,2023-08-26 17:28:27.4490,1693088907.449084,-0.00392842898145318,-0.010417753830552101,0.011888617649674416,-0.544769287109375,-0.2683868408203125,-0.7841796875,85.79667663574219,-17.220077514648438,-31.985519409179688,,,,,,,,,,
0,2023-08-26 17:28:09.4420,00:55,10,0,2023-08-26 17:28:27.5500,1693088907.549669,-0.006138586439192295,-0.006083192303776741,0.00501153664663434,-0.54571533203125,-0.26263427734375,-0.7790374755859375,85.79731750488281,-16.8946533203125,-32.22731018066406,,,,,,,,,,
0,2023-08-26 17:28:09.4420,00:55,10,0,2023-08-26 17:28:27.6500,1693088907.649795,0.013713947497308254,-0.007744738832116127,0.0011182613670825958,-0.552459716796875,-0.2766265869140625,-0.78973388671875,85.85652160644531,-17.363265991210938,-31.826492309570312,,,,,,,,,,
0,2023-08-26 17:28:09.4420,00:55,10,0,2023-08-26 17:28:27.7500,1693088907.749716,0.011059309355914593,-0.005853361915796995,-0.003213103860616684,-0.5534515380859375,-0.283203125,-0.7981414794921875,85.75477600097656,-17.249603271484375,-32.0552978515625,,,,,,,,,,
0,2023-08-26 17:28:09.4420,00:55,10,0,2023-08-26 17:28:27.8500,1693088907.849509,-0.002494050422683358,0.0021949773654341698,-0.011806858703494072,-0.5540618896484375,-0.2689971923828125,-0.78594970703125,85.75477600097656,-17.249603271484375,-32.0552978515625,,,,,,,,,,
0,2023-08-26 17:28:09.4420,00:55,10,0,2023-08-26 17:28:27.9500,1693088907.949667,-0.009922139346599579,0.0013052152935415506,-0.0026197514962404966,-0.5462646484375,-0.2830810546875,-0.7877960205078125,85.86238098144531,-17.260650634765625,-32.17179870605469,,,,,,,,,,
0,2023-08-26 17:28:09.4420,00:55,10,0,2023-08-26 17:28:28.0500,1693088908.049708,-0.003185939509421587,-0.003087935270741582,0.01649428717792034,-0.5520477294921875,-0.28594970703125,-0.7937164306640625,85.86814880371094,-17.199844360351562,-32.167877197265625,,,,,,,,,,
0,2023-08-26 17:28:09.4420,00:55,10,0,2023-08-26 17:28:28.1490,1693088908.149396,0.02883031591773033,-0.006024336442351341,-0.006394516211003065,-0.5471954345703125,-0.286468505859375,-0.787353515625,85.45997619628906,-17.242141723632812,-31.053237915039062,,,,,,,,,,
0,2023-08-26 17:28:09.4420,00:55,10,0,2023-08-26 17:28:28.2490,1693088908.249239,0.01992443948984146,-0.006922088097780943,-0.0029941920656710863,-0.548309326171875,-0.279083251953125,-0.783599853515625,85.59521484375,-17.460174560546875,-31.080352783203125,,,,,,,,,,
0,2023-08-26 17:28:09.4420,00:55,10,0,2023-08-26 17:28:28.3500,1693088908.349907,0.00720678037032485,-0.009493903256952763,0.00506906071677804,-0.54278564453125,-0.277191162109375,-0.7900543212890625,85.77972412109375,-17.46685791015625,-31.123641967773438,,,,,,,,,,
0,2023-08-26 17:28:09.4420,00:55,10,0,2023-08-26 17:28:28.4480,1693088908.448166,0.014732340350747108,-0.01091789547353983,-0.008067513816058636,-0.55255126953125,-0.281158447265625,-0.7894439697265625,85.75386047363281,-17.353469848632812,-31.1524658203125,,,,,,,,,,
0,2023-08-26 17:28:09.4420,00:55,10,0,2023-08-26 17:28:28.5500,1693088908.5496821,0.016283897683024406,-0.008855010382831097,0.004800081718713045,-0.54638671875,-0.27618408203125,-0.7888031005859375,85.53837585449219,-17.424758911132812,-31.45477294921875,,,,,,,,,,
0,2023-08-26 17:28:09.4420,00:55,10,0,2023-08-26 17:28:28.6500,1693088908.650072,0.002177134156227112,-0.006006759591400623,-0.005381982307881117,-0.5457916259765625,-0.2743988037109375,-0.780853271484375,85.55015563964844,-17.212661743164062,-31.34600830078125,,,,,,,,,,
0,2023-08-26 17:28:09.4420,00:55,10,0,2023-08-26 17:28:28.7480,1693088908.747843,0.002177134156227112,-0.006006759591400623,-0.005381982307881117,-0.54205322265625,-0.278472900390625,-0.77947998046875,85.70164489746094,-17.470458984375,-31.010284423828125,,,,,,,,,,
0,2023-08-26 17:28:09.4420,00:55,10,0,2023-08-26 17:28:28.8490,1693088908.849441,0.01907568983733654,-0.008146343752741814,0.007586280815303326,-0.55621337890625,-0.288818359375,-0.782196044921875,85.52877807617188,-17.389907836914062,-30.979232788085938,,,,,,,,,,
0,2023-08-26 17:28:09.4420,00:55,10,0,2023-08-26 17:28:28.9490,1693088908.949476,0.02033163607120514,-0.008643555454909801,-0.005556685384362936,-0.566925048828125,-0.284027099609375,-0.79217529296875,85.59074401855469,-17.815643310546875,-30.9241943359375,,,,,,,,,,
0,2023-08-26 17:28:09.4420,00:55,10,0,2023-08-26 17:28:29.0500,1693088909.0498319,0.013399695046246052,-0.010665693320333958,-0.01019724365323782,-0.5591888427734375,-0.2785186767578125,-0.7875823974609375,85.59022521972656,-17.870269775390625,-30.771377563476562,,,,,,,,,,
0,2023-08-26 17:28:09.4420,00:55,10,0,2023-08-26 17:28:29.1500,1693088909.149695,0.013399695046246052,-0.010665693320333958,-0.01019724365323782,-0.543365478515625,-0.2848052978515625,-0.7870025634765625,85.43089294433594,-17.615966796875,-31.142898559570312,,,,,,,,,,
0,2023-08-26 17:28:09.4420,00:55,10,0,2023-08-26 17:28:29.2500,1693088909.249769,-0.010848652571439743,-0.007213437929749489,-0.000963797967415303,-0.551971435546875,-0.28826904296875,-0.7974853515625,85.73211669921875,-18.227142333984375,-23.42205810546875,,,,,,,,,,
0,2023-08-26 17:28:09.4420,00:55,10,0,2023-08-26 17:28:29.3490,1693088909.349478,0.016412794589996338,-0.023872843012213707,0.00983478780835867,-0.5453033447265625,-0.278656005859375,-0.7749481201171875,85.63340759277344,-18.20440673828125,-23.4124755859375,,,,,,,,,,
0,2023-08-26 17:28:09.4420,00:55,10,0,2023-08-26 17:28:29.4490,1693088909.4493861,0.0009989517275243998,-0.01847594603896141,0.004277569241821766,-0.5595550537109375,-0.28546142578125,-0.7662353515625,85.54792785644531,-18.429214477539062,-23.565231323242188,,,,,,,,,,
0,2023-08-26 17:28:09.4420,00:55,10,0,2023-08-26 17:28:29.5490,1693088909.548524,-0.0017385114915668964,-0.01750469207763672,-0.009250489994883537,-0.557830810546875,-0.2810516357421875,-0.7710418701171875,85.46044921875,-18.323272705078125,-23.29168701171875,,,,,,,,,,
0,2023-08-26 17:28:09.4420,00:55,10,0,2023-08-26 17:28:29.6500,1693088909.649682,-0.0065018413588404655,-0.023744476959109306,-0.013864416629076004,-0.561859130859375,-0.2853851318359375,-0.7848663330078125,85.36929321289062,-18.404708862304688,-23.08941650390625,,,,,,,,,,
0,2023-08-26 17:28:09.4420,00:55,10,0,2023-08-26 17:28:29.7490,1693088909.749433,-0.009558351710438728,-0.023572171106934547,0.02900182455778122,-0.5627288818359375,-0.27825927734375,-0.7738037109375,85.28846740722656,-18.336578369140625,-23.4669189453125,,,,,,,,,,
0,2023-08-26 17:28:09.4420,00:55,10,0,2023-08-26 17:28:29.8500,1693088909.849585,-0.06819023936986923,0.005625128746032715,0.07059161365032196,-0.5665130615234375,-0.2883148193359375,-0.7689971923828125,85.09129333496094,-17.85955810546875,-23.4678955078125,,,,,,,,,,
0,2023-08-26 17:28:09.4420,00:55,10,0,2023-08-26 17:28:29.9500,1693088909.949508,-0.05345017462968826,0.0013827132061123848,0.2279527336359024,-0.566070556640625,-0.3275909423828125,-0.7528533935546875,84.97447204589844,-17.368362426757812,-23.454818725585938,,,,,,,,,,
0,2023-08-26 17:28:09.4420,00:55,10,0,2023-08-26 17:28:30.0500,1693088910.049834,0.10982023924589157,-0.044675059616565704,0.3726404011249542,-0.608917236328125,-0.28033447265625,-0.81072998046875,84.50325012207031,-15.869705200195312,-23.5272216796875,,,,,,,,,,
0,2023-08-26 17:28:09.4420,00:55,10,0,2023-08-26 17:28:30.1490,1693088910.149078,-0.34780991077423096,-0.0810445174574852,0.7081467509269714,-0.608917236328125,-0.28033447265625,-0.81072998046875,83.57855224609375,-13.36492919921875,-23.396347045898438,,,,,,,,,,
0,2023-08-26 17:28:09.4420,00:55,10,0,2023-08-26 17:28:30.2500,1693088910.2497358,-0.6982443332672119,0.0004873584839515388,0.8155062794685364,-0.578765869140625,-0.08758544921875,-0.77777099609375,82.75265502929688,-9.983169555664062,-31.320648193359375,,,,,,,,,,
0,2023-08-26 17:28:09.4420,00:55,10,0,2023-08-26 17:28:30.3500,1693088910.349607,-0.44887101650238037,0.16911019384860992,0.8036906123161316,-0.5382232666015625,-0.01953125,-0.810150146484375,83.25166320800781,-7.002777099609375,-31.269454956054688,,,,,,,,,,
0,2023-08-26 17:28:09.4420,00:55,10,0,2023-08-26 17:28:30.4500,1693088910.449507,-0.10086482763290405,0.2697918117046356,0.7757772207260132,-0.594879150390625,-0.0277252197265625,-0.8470001220703125,84.16331481933594,-3.8734130859375,-31.52630615234375,,,,,,,,,,
0,2023-08-26 17:28:09.4420,00:55,10,0,2023-08-26 17:28:30.5490,1693088910.549481,-0.05043414607644081,0.354236900806427,0.8095181584358215,-0.60357666015625,0.03314208984375,-0.800933837890625,85.71598815917969,-1.110198974609375,-32.14375305175781,,,,,,,,,,
0,2023-08-26 17:28:09.4420,00:55,10,0,2023-08-26 17:28:30.6490,1693088910.649043,-0.17888027429580688,0.17191210389137268,0.6718047261238098,-0.4481964111328125,0.09991455078125,-0.8572540283203125,87.3480224609375,0.3455810546875,-32.25962829589844,,,,,,,,,,
0,2023-08-26 17:28:09.4420,00:55,10,0,2023-08-26 17:28:30.7490,1693088910.749413,-0.2220786064863205,-0.026073679327964783,0.6370236277580261,-0.511993408203125,0.13946533203125,-0.807220458984375,87.77806091308594,2.0722503662109375,-32.37132263183594,,,,,,,,,,
0,2023-08-26 17:28:09.4420,00:55,10,0,2023-08-26 17:28:30.8500,1693088910.8497329,-0.126739040017128,-0.19457294046878815,0.6136437058448792,-0.489166259765625,0.183197021484375,-0.876739501953125,87.64248657226562,3.7248687744140625,-31.711105346679688,,,,,,,,,,
0,2023-08-26 17:28:09.4420,00:55,10,0,2023-08-26 17:28:30.9490,1693088910.948985,-0.09702854603528976,-0.20793908834457397,0.40318262577056885,-0.5700836181640625,0.194366455078125,-0.8805084228515625,87.11592102050781,5.0941162109375,-31.357009887695312,,,,,,,,,,
0,2023-08-26 17:28:09.4420,00:55,10,0,2023-08-26 17:28:31.0490,1693088911.049361,-0.0332690067589283,-0.21637491881847382,0.4322856366634369,-0.5337371826171875,0.2703704833984375,-0.8102264404296875,86.45486450195312,6.3710479736328125,-31.101760864257812,,,,,,,,,,
0,2023-08-26 17:28:09.4420,00:55,10,0,2023-08-26 17:28:31.1500,1693088911.149809,0.334514856338501,-0.050993409007787704,0.25862810015678406,-0.511627197265625,0.1965789794921875,-0.7261505126953125,86.40815734863281,5.7729644775390625,-31.6927490234375,,,,,,,,,,
0,2023-08-26 17:28:09.4420,00:55,10,0,2023-08-26 17:28:31.2490,1693088911.249463,-0.03701714053750038,0.39709168672561646,0.2742858827114105,-0.5571441650390625,0.425872802734375,-0.8604888916015625,88.89497375488281,6.458038330078125,-33.83332824707031,,,,,,,,,,
0,2023-08-26 17:28:09.4420,00:55,10,0,2023-08-26 17:28:31.3490,1693088911.3494601,0.48852014541625977,0.4427734315395355,0.2084759771823883,-0.416107177734375,0.2951202392578125,-0.830047607421875,92.55393981933594,3.7247161865234375,-36.276031494140625,,,,,,,,,,
0,2023-08-26 17:28:09.4420,00:55,10,0,2023-08-26 17:28:31.4490,1693088911.449436,0.5174561738967896,0.49375244975090027,0.5605879426002502,-0.4780731201171875,0.37506103515625,-0.7803192138671875,96.64723205566406,2.3413543701171875,-38.50846862792969,,,,,,,,,,
0,2023-08-26 17:28:09.4420,00:55,10,0,2023-08-26 17:28:31.5500,1693088911.549887,1.1270431280136108,-0.1584615409374237,0.673275351524353,-0.26898193359375,0.1141510009765625,-0.9074859619140625,96.27192687988281,-1.5458831787109375,-42.893951416015625,,,,,,,,,,
0,2023-08-26 17:28:09.4420,00:55,10,0,2023-08-26 17:28:31.6490,1693088911.6493468,-0.014751515351235867,0.14502297341823578,0.7485871315002441,-0.443572998046875,0.1901397705078125,-0.9256591796875,96.85443115234375,-1.7974700927734375,-46.990234375,,,,,,,,,,
0,2023-08-26 17:28:09.4420,00:55,10,0,2023-08-26 17:28:31.7490,1693088911.749288,0.025248631834983826,0.4838082194328308,0.88509202003479,-0.2751617431640625,0.242889404296875,-0.8262786865234375,101.42391967773438,1.16717529296875,-49.413818359375,,,,,,,,,,
0,2023-08-26 17:28:09.4420,00:55,10,0,2023-08-26 17:28:31.8490,1693088911.848902,0.8523870706558228,0.4070567190647125,1.0499049425125122,-0.3274383544921875,0.2717132568359375,-0.9138031005859375,105.57572937011719,0.926849365234375,-52.43696594238281,,,,,,,,,,
0,2023-08-26 17:28:09.4420,00:55,10,0,2023-08-26 17:28:31.9480,1693088911.948359,1.1772536039352417,0.0791667252779007,1.3720035552978516,-0.23382568359375,0.1350555419921875,-0.9488677978515625,109.54400634765625,-1.7206268310546875,-55.440582275390625,,,,,,,,,,
0,2023-08-26 17:28:09.4420,00:55,10,0,2023-08-26 17:28:32.0480,1693088912.047739,0.5250225067138672,0.22907446324825287,0.6530845761299133,-0.3006439208984375,-0.0161590576171875,-0.9287261962890625,114.26681518554688,-4.86712646484375,-56.11399841308594,,,,,,,,,,
0,2023-08-26 17:28:09.4420,00:55,10,0,2023-08-26 17:28:32.1480,1693088912.1480289,-0.40800321102142334,0.24545183777809143,0.6256753206253052,-0.2886505126953125,0.1304473876953125,-1.05450439453125,117.82643127441406,-2.8852081298828125,-56.43011474609375,,,,,,,,,,
0,2023-08-26 17:28:09.4420,00:55,10,0,2023-08-26 17:28:32.2490,1693088912.2488298,0.3571575880050659,-0.024628113955259323,0.22941455245018005,-0.234405517578125,0.1709442138671875,-1.0182952880859375,118.15731811523438,-4.16156005859375,-56.58204650878906,,,,,,,,,,
0,2023-08-26 17:28:09.4420,00:55,10,0,2023-08-26 17:28:32.3500,1693088912.35035,0.22686509788036346,0.04897313565015793,0.09313074499368668,-0.15496826171875,0.0484466552734375,-0.963531494140625,117.87739562988281,-5.26031494140625,-56.84027099609375,,,,,,,,,,
0,2023-08-26 17:28:09.4420,00:55,10,0,2023-08-26 17:28:32.4500,1693088912.4500551,0.02798023633658886,0.11626801639795303,-0.26928046345710754,-0.1297149658203125,0.07135009765625,-1.011474609375,118.94749450683594,-4.86865234375,-56.470733642578125,,,,,,,,,,
0,2023-08-26 17:28:09.4420,00:55,10,0,2023-08-26 17:28:32.5490,1693088912.549433,0.26701971888542175,0.038235537707805634,0.2643989026546478,-0.18548583984375,0.0546417236328125,-1.0008087158203125,118.96244812011719,-5.8605499267578125,-56.053436279296875,,,,,,,,,,
0,2023-08-26 17:28:09.4420,00:55,10,0,2023-08-26 17:28:32.6490,1693088912.649385,0.10789397358894348,0.02841273322701454,-0.01673423871397972,-0.1318511962890625,0.0069122314453125,-1.0013427734375,118.88973999023438,-6.9863433837890625,-56.14317321777344,,,,,,,,,,
0,2023-08-26 17:28:09.4420,00:55,10,0,2023-08-26 17:28:32.7490,1693088912.749459,0.2555931508541107,-0.0030687605030834675,-0.07443828135728836,-0.1274566650390625,0.0291290283203125,-1.0020599365234375,119.09590148925781,-7.5959320068359375,-55.38446044921875,,,,,,,,,,
0,2023-08-26 17:28:09.4420,00:55,10,0,2023-08-26 17:28:32.8490,1693088912.849154,0.17745015025138855,-0.05878954753279686,0.1131390705704689,-0.1407928466796875,-0.0481719970703125,-1.00213623046875,118.84645080566406,-8.965179443359375,-55.61686706542969,,,,,,,,,,
0,2023-08-26 17:28:09.4420,00:55,10,0,2023-08-26 17:28:32.9490,1693088912.949463,-0.08252523839473724,0.01973029598593712,-0.02028343454003334,-0.1358642578125,-0.0242462158203125,-0.994140625,119.10591125488281,-8.3690185546875,-55.878875732421875,,,,,,,,,,
0,2023-08-26 17:28:09.4420,00:55,10,0,2023-08-26 17:28:33.0500,1693088913.049562,-0.16450105607509613,0.025133049115538597,0.057256363332271576,-0.1468353271484375,-0.0133819580078125,-0.9951171875,119.22463989257812,-7.88836669921875,-55.640625,,,,,,,,,,
0,2023-08-26 17:28:09.4420,00:55,10,0,2023-08-26 17:28:33.1490,1693088913.148779,-0.012770656496286392,-0.0035201662685722113,0.05781962350010872,-0.1509246826171875,0.0171966552734375,-0.9849853515625,119.23126220703125,-7.864227294921875,-55.858734130859375,,,,,,,,,,
0,2023-08-26 17:28:09.4420,00:55,10,0,2023-08-26 17:28:33.2490,1693088913.249041,-0.010273410007357597,0.024631043896079063,-0.020351078361272812,-0.1421661376953125,0.0037994384765625,-0.9926605224609375,119.57487487792969,-8.10137939453125,-55.915069580078125,,,,,,,,,,
0,2023-08-26 17:28:09.4420,00:55,10,0,2023-08-26 17:28:33.3490,1693088913.349288,0.09438961744308472,-0.0022367890924215317,-0.03531431406736374,-0.1316375732421875,-0.008880615234375,-0.9966888427734375,119.51275634765625,-8.1812744140625,-55.76048278808594,,,,,,,,,,
0,2023-08-26 17:28:09.4420,00:55,10,0,2023-08-26 17:28:33.4500,1693088913.449555,0.08545950800180435,-0.028321653604507446,-0.03404957801103592,-0.136688232421875,-0.0017852783203125,-0.9994964599609375,119.49681091308594,-8.423583984375,-55.36102294921875,,,,,,,,,,
0,2023-08-26 17:28:09.4420,00:55,10,0,2023-08-26 17:28:33.5490,1693088913.548907,0.07053089141845703,-0.04454323276877403,0.000740625080652535,-0.1426544189453125,-0.0098724365234375,-0.9956512451171875,119.33758544921875,-8.560226440429688,-55.537689208984375,,,,,,,,,,
0,2023-08-26 17:28:09.4420,00:55,10,0,2023-08-26 17:28:33.6500,1693088913.649508,0.05563982576131821,0.00469595193862915,-0.05573996156454086,-0.149383544921875,-0.0263214111328125,-0.995635986328125,119.28965759277344,-8.772186279296875,-54.82257080078125,,,,,,,,,,
0,2023-08-26 17:28:09.4420,00:55,10,0,2023-08-26 17:28:33.7490,1693088913.749354,-0.05822895094752312,0.015859123319387436,-0.043412987142801285,-0.125579833984375,-0.035247802734375,-0.9922027587890625,119.42878723144531,-8.253952026367188,-54.70265197753906,,,,,,,,,,
0,2023-08-26 17:28:09.4420,00:55,10,0,2023-08-26 17:28:33.8480,1693088913.8477159,0.03447328880429268,-0.023963389918208122,-0.012170912697911263,-0.1361236572265625,-0.014923095703125,-0.9863128662109375,119.17167663574219,-8.5833740234375,-54.84809875488281,,,,,,,,,,
0,2023-08-26 17:28:09.4420,00:55,10,0,2023-08-26 17:28:33.9480,1693088913.948104,-0.007111971732228994,-0.012024172581732273,-0.026921894401311874,-0.144683837890625,-0.0280609130859375,-0.9869537353515625,119.29168701171875,-8.516448974609375,-55.1151123046875,,,,,,,,,,
0,2023-08-26 17:28:09.4420,00:55,10,0,2023-08-26 17:28:34.0470,1693088914.046969,0.015736352652311325,-0.02269093133509159,-0.006914631463587284,-0.1418914794921875,-0.0141143798828125,-0.97943115234375,119.40440368652344,-8.6156005859375,-54.753753662109375,,,,,,,,,,
0,2023-08-26 17:28:09.4420,00:55,10,0,2023-08-26 17:28:34.1490,1693088914.1490998,-0.019103121012449265,-0.0007155913626775146,-0.01014131773263216,-0.1424713134765625,-0.02471923828125,-0.9845123291015625,119.33511352539062,-8.443496704101562,-54.68077087402344,,,,,,,,,,
0,2023-08-26 17:28:09.4420,00:55,10,0,2023-08-26 17:28:34.2490,1693088914.2491431,-0.04591529443860054,0.02346724271774292,-0.01561171654611826,-0.1443939208984375,-0.01348876953125,-0.9865264892578125,119.37008666992188,-8.284317016601562,-54.961883544921875,,,,,,,,,,
0,2023-08-26 17:28:09.4420,00:55,10,0,2023-08-26 17:28:34.3490,1693088914.34938,-0.02081979438662529,0.014736602082848549,-0.01582237333059311,-0.1431121826171875,-0.0219879150390625,-0.992218017578125,119.49118041992188,-8.396255493164062,-55.19563293457031,,,,,,,,,,
0,2023-08-26 17:28:09.4420,00:55,10,0,2023-08-26 17:28:34.4490,1693088914.4493341,0.009583118371665478,0.01206997875124216,-0.004246676806360483,-0.1390380859375,-0.0216217041015625,-0.9918060302734375,119.70211791992188,-8.4990234375,-55.14002990722656,,,,,,,,,,
0,2023-08-26 17:28:09.4420,00:55,10,0,2023-08-26 17:28:34.5490,1693088914.549279,0.01002200786024332,4.1811628761934116e-05,-0.00515827676281333,-0.1357421875,-0.0123291015625,-0.9947052001953125,119.74519348144531,-8.37872314453125,-55.03895568847656,,,,,,,,,,
0,2023-08-26 17:28:09.4420,00:55,10,0,2023-08-26 17:28:34.6500,1693088914.6495,-0.003949734382331371,0.008202003315091133,-0.009585515595972538,-0.1382904052734375,-0.0146331787109375,-0.994384765625,119.81864929199219,-8.431289672851562,-55.28205871582031,,,,,,,,,,
0,2023-08-26 17:28:09.4420,00:55,10,0,2023-08-26 17:28:34.7490,1693088914.7485452,-0.01696380414068699,-0.0016586167039349675,0.00714526092633605,-0.134490966796875,-0.01983642578125,-0.992767333984375,119.60723876953125,-8.286026000976562,-55.07182312011719,,,,,,,,,,
0,2023-08-26 17:28:09.4420,00:55,10,0,2023-08-26 17:28:34.8490,1693088914.8491511,-0.019525498151779175,0.012279835529625416,0.002028529765084386,-0.1328887939453125,-0.0125885009765625,-0.99407958984375,119.733642578125,-8.338333129882812,-54.848724365234375,,,,,,,,,,
0,2023-08-26 17:28:09.4420,00:55,10,0,2023-08-26 17:28:34.9500,1693088914.949696,0.013518205843865871,-0.0020905814599245787,0.000606668065302074,-0.13519287109375,-0.017578125,-0.991119384765625,119.84024047851562,-8.249557495117188,-54.854461669921875,,,,,,,,,,
0,2023-08-26 17:28:09.4420,00:55,10,0,2023-08-26 17:28:35.0500,1693088915.049578,-0.011756790801882744,-0.002514823107048869,-0.00544403400272131,-0.128387451171875,-0.0038909912109375,-0.9920196533203125,119.81266784667969,-8.378921508789062,-54.783355712890625,,,,,,,,,,
0,2023-08-26 17:28:09.4420,00:55,10,0,2023-08-26 17:28:35.1500,1693088915.149605,-0.035600073635578156,0.008283762261271477,-0.007727694697678089,-0.136444091796875,-0.0142822265625,-0.989532470703125,119.85867309570312,-7.9818878173828125,-54.867645263671875,,,,,,,,,,
0,2023-08-26 17:28:09.4420,00:55,10,0,2023-08-26 17:28:35.2490,1693088915.249054,0.013649499043822289,-0.0024493092205375433,0.0005073322099633515,-0.130035400390625,-0.0056915283203125,-0.9991455078125,119.73609924316406,-7.800018310546875,-54.99632263183594,,,,,,,,,,
0,2023-08-26 17:28:09.4420,00:55,10,0,2023-08-26 17:28:35.3490,1693088915.3493981,-0.0043718451634049416,-0.003367567202076316,0.000565389113035053,-0.1351776123046875,-0.0096282958984375,-0.9922332763671875,119.5997314453125,-7.9837799072265625,-54.70240783691406,,,,,,,,,,
0,2023-08-26 17:28:09.4420,00:55,10,0,2023-08-26 17:28:35.4490,1693088915.449222,-0.001541171339340508,0.0010492854053154588,-0.004254932515323162,-0.1319580078125,-0.0091400146484375,-0.9953765869140625,119.67965698242188,-7.957427978515625,-55.08235168457031,,,,,,,,,,
0,2023-08-26 17:28:09.4420,00:55,10,0,2023-08-26 17:28:35.5490,1693088915.549292,0.0017904432024806738,-0.0002359560749027878,-0.0046485476195812225,-0.131988525390625,-0.0095367431640625,-0.99444580078125,119.79302978515625,-7.8444061279296875,-55.04243469238281,,,,,,,,,,
0,2023-08-26 17:28:09.4420,00:55,10,0,2023-08-26 17:28:35.6490,1693088915.64915,-0.009857957251369953,-0.0027382622938603163,-0.0017132115317508578,-0.1280364990234375,-0.0071868896484375,-0.993804931640625,119.83842468261719,-7.8491058349609375,-54.96394348144531,,,,,,,,,,
0,2023-08-26 17:28:09.4420,00:55,10,0,2023-08-26 17:28:35.7490,1693088915.749371,-0.01489346195012331,-0.004509530495852232,0.005468534771353006,-0.1310882568359375,-0.010894775390625,-0.9930877685546875,119.75192260742188,-7.9486236572265625,-54.82182312011719,,,,,,,,,,
0,2023-08-26 17:28:09.4420,00:55,10,0,2023-08-26 17:28:35.8490,1693088915.849218,-0.01034664735198021,-0.008385228924453259,0.0006226470577530563,-0.129302978515625,-0.0075225830078125,-0.99481201171875,119.90956115722656,-7.7990570068359375,-54.92193603515625,,,,,,,,,,
0,2023-08-26 17:28:09.4420,00:55,10,0,2023-08-26 17:28:35.9490,1693088915.949462,-0.010929613374173641,0.0022975089959800243,-0.005440838169306517,-0.132476806640625,-0.009521484375,-0.9918365478515625,119.94212341308594,-7.8313751220703125,-55.27960205078125,,,,,,,,,,
0,2023-08-26 17:28:09.4420,00:55,10,0,2023-08-26 17:28:36.0490,1693088916.0490608,0.003254382871091366,-0.005447229836136103,0.0005715143634006381,-0.1285858154296875,-0.00537109375,-0.9939117431640625,119.89981079101562,-7.972991943359375,-54.87510681152344,,,,,,,,,,
0,2023-08-26 17:28:09.4420,00:55,10,0,2023-08-26 17:28:36.1480,1693088916.1475081,-0.006992129608988762,-0.003885285696014762,0.0019257317762821913,-0.1308441162109375,-0.0046234130859375,-0.992950439453125,119.92787170410156,-8.00628662109375,-55.030426025390625,,,,,,,,,,
0,2023-08-26 17:28:09.4420,00:55,10,0,2023-08-26 17:28:36.2490,1693088916.249059,-0.014141385443508625,-0.0017571536591276526,-0.0015931029338389635,-0.12872314453125,-0.0067138671875,-0.9940185546875,120.04734802246094,-7.61883544921875,-55.24635314941406,,,,,,,,,,
0,2023-08-26 17:28:09.4420,00:55,10,0,2023-08-26 17:28:36.3490,1693088916.349042,-0.007248857989907265,-0.0027353328187018633,-0.0019105518003925681,-0.129180908203125,-0.0125579833984375,-0.995513916015625,119.84051513671875,-7.619964599609375,-54.981842041015625,,,,,,,,,,
0,2023-08-26 17:28:09.4420,00:55,10,0,2023-08-26 17:28:36.4490,1693088916.449075,0.0004290352517273277,-0.010722685605287552,-0.002813629573211074,-0.127166748046875,-0.003662109375,-0.994293212890625,119.98159790039062,-7.8073272705078125,-55.18269348144531,,,,,,,,,,
0,2023-08-26 17:28:09.4420,00:55,10,0,2023-08-26 17:28:36.5490,1693088916.549306,-0.019483154639601707,-0.004293015692383051,0.004366518929600716,-0.1345977783203125,-0.0066986083984375,-0.991943359375,119.83306884765625,-7.71429443359375,-55.195709228515625,,,,,,,,,,
0,2023-08-26 17:28:09.4420,00:55,10,0,2023-08-26 17:28:36.6490,1693088916.649477,0.04229259490966797,0.0015656723408028483,-0.0057311225682497025,-0.1322021484375,-0.001068115234375,-0.9945068359375,119.71347045898438,-7.7608489990234375,-54.867584228515625,,,,,,,,,,
0,2023-08-26 17:28:09.4420,00:55,10,0,2023-08-26 17:28:36.7480,1693088916.748476,-0.010763165540993214,-0.007394533138722181,0.00020346550445538014,-0.1282958984375,-0.003692626953125,-0.992034912109375,119.82403564453125,-7.7649993896484375,-55.2969970703125,,,,,,,,,,
0,2023-08-26 17:28:09.4420,00:55,10,0,2023-08-26 17:28:36.8490,1693088916.849129,0.029865486547350883,-0.004745486658066511,-0.010553840547800064,-0.129638671875,0.0005035400390625,-0.9933624267578125,119.77178955078125,-7.7293548583984375,-54.57798767089844,,,,,,,,,,
0,2023-08-26 17:28:09.4420,00:55,10,0,2023-08-26 17:28:36.9490,1693088916.948755,-0.03512309864163399,0.0016548882704228163,-0.00395852280780673,-0.1305694580078125,-0.0057830810546875,-0.99462890625,119.83250427246094,-7.7835845947265625,-54.686859130859375,,,,,,,,,,
0,2023-08-26 17:28:09.4420,00:55,10,0,2023-08-26 17:28:37.0490,1693088917.049031,-0.01404551137238741,-0.014457768760621548,-0.00777589762583375,-0.1276397705078125,-0.009521484375,-0.9944000244140625,119.83651733398438,-7.83380126953125,-54.955108642578125,,,,,,,,,,
0,2023-08-26 17:28:09.4420,00:55,10,0,2023-08-26 17:28:37.1490,1693088917.1488109,-0.009313073940575123,-0.008146610110998154,-0.005242166109383106,-0.1328277587890625,-0.0059356689453125,-0.99365234375,119.95294189453125,-7.7814788818359375,-55.01885986328125,,,,,,,,,,
0,2023-08-26 17:28:09.4420,00:55,10,0,2023-08-26 17:28:37.2510,1693088917.250575,0.007527690846472979,-0.005065864883363247,-0.00830746442079544,-0.1303558349609375,0.001708984375,-0.994598388671875,119.75247192382812,-7.76434326171875,-54.89495849609375,,,,,,,,,,
0,2023-08-26 17:28:09.4420,00:55,10,0,2023-08-26 17:28:37.3500,1693088917.350226,-0.021856030449271202,0.0035835495218634605,-0.0008506136364303529,-0.1302947998046875,-0.0055694580078125,-0.991943359375,119.96553039550781,-7.756195068359375,-54.765869140625,,,,,,,,,,
0,2023-08-26 17:28:09.4420,00:55,10,0,2023-08-26 17:28:37.4490,1693088917.449174,-0.009790845215320587,-0.0041281660087406635,0.0034738273825496435,-0.13104248046875,-0.003448486328125,-0.99127197265625,119.96553039550781,-7.756195068359375,-54.765869140625,,,,,,,,,,
0,2023-08-26 17:28:09.4420,00:55,10,0,2023-08-26 17:28:37.5490,1693088917.5493321,-0.004890629090368748,-0.0009725864510983229,-0.00013981595111545175,-0.1317901611328125,-0.0010986328125,-0.992706298828125,119.77291870117188,-7.45013427734375,-55.23231506347656,,,,,,,,,,
0,2023-08-26 17:28:09.4420,00:55,10,0,2023-08-26 17:28:37.6490,1693088917.6490722,0.011324027553200722,-0.01782320626080036,2.8495824153651483e-05,-0.1273651123046875,0.0008544921875,-0.9963226318359375,119.77812194824219,-7.4983673095703125,-55.34602355957031,,,,,,,,,,
0,2023-08-26 17:28:09.4420,00:55,10,0,2023-08-26 17:28:37.7490,1693088917.7489018,-0.012835637666285038,0.0027105652261525393,-0.012370383366942406,-0.1331329345703125,0.004608154296875,-0.9921875,119.87457275390625,-7.75830078125,-55.09925842285156,,,,,,,,,,
0,2023-08-26 17:28:09.4420,00:55,10,0,2023-08-26 17:28:37.8490,1693088917.848988,-0.009381517767906189,-0.004487426485866308,-0.0086590014398098,-0.127288818359375,-0.0035247802734375,-0.991943359375,119.93844604492188,-7.6271514892578125,-55.13665771484375,,,,,,,,,,
0,2023-08-26 17:28:09.4420,00:55,10,0,2023-08-26 17:28:37.9490,1693088917.948992,-0.007305583450943232,0.006490389816462994,-0.001142229768447578,-0.132080078125,-0.00750732421875,-0.99224853515625,119.93913269042969,-7.6255035400390625,-55.42083740234375,,,,,,,,,,
0,2023-08-26 17:28:09.4420,00:55,10,0,2023-08-26 17:28:38.0490,1693088918.049268,0.003168362658470869,-0.00884835235774517,0.0029941920656710863,-0.1288604736328125,-0.0026092529296875,-0.9947509765625,119.96467590332031,-7.728973388671875,-55.34919738769531,,,,,,,,,,
0,2023-08-26 17:28:09.4420,00:55,10,0,2023-08-26 17:28:38.1480,1693088918.148419,-0.0008681904873810709,-0.007514108903706074,0.00021758026559837162,-0.1285247802734375,0.0007476806640625,-0.9922637939453125,119.92958068847656,-7.7777557373046875,-55.40193176269531,,,,,,,,,,
0,2023-08-26 17:28:09.4420,00:55,10,0,2023-08-26 17:28:38.2500,1693088918.250272,-0.019541744142770767,0.001356614287942648,-0.014120612293481827,-0.1299896240234375,0.001922607421875,-0.9954833984375,119.937255859375,-7.7886199951171875,-55.21827697753906,,,,,,,,,,
0,2023-08-26 17:28:09.4420,00:55,10,0,2023-08-26 17:28:38.3500,1693088918.349916,-0.0010761833982542157,0.00800173357129097,-0.003352653468027711,-0.13372802734375,-0.00299072265625,-0.994781494140625,120.02638244628906,-7.6609954833984375,-54.75337219238281,,,,,,,,,,
0,2023-08-26 17:28:09.4420,00:55,10,0,2023-08-26 17:28:38.4490,1693088918.449225,0.007963650859892368,-0.008199607022106647,-0.005846171174198389,-0.1281280517578125,-0.000640869140625,-0.993438720703125,120.08294677734375,-7.793243408203125,-55.04319763183594,,,,,,,,,,
0,2023-08-26 17:28:09.4420,00:55,10,0,2023-08-26 17:28:38.5490,1693088918.549292,0.0015662050573155284,-0.005905027035623789,0.0007797735743224621,-0.1302032470703125,-0.007476806640625,-0.9936676025390625,119.81149291992188,-7.526397705078125,-54.81040954589844,,,,,,,,,,
0,2023-08-26 17:28:09.4420,00:55,10,0,2023-08-26 17:28:38.6490,1693088918.649078,-0.00017869810108095407,-0.017362745478749275,-0.004230697639286518,-0.127593994140625,-0.00299072265625,-0.994384765625,119.79808044433594,-7.5904388427734375,-54.848236083984375,,,,,,,,,,
0,2023-08-26 17:28:09.4420,00:55,10,0,2023-08-26 17:28:38.7470,1693088918.747427,-0.007448595017194748,-0.005900499876588583,0.0012639362830668688,-0.129241943359375,-0.0030670166015625,-0.9931488037109375,119.80276489257812,-7.506591796875,-55.051727294921875,,,,,,,,,,
0,2023-08-26 17:28:09.4420,00:55,10,0,2023-08-26 17:28:38.8490,1693088918.84883,-0.02100728079676628,-0.00035127095179632306,-0.005501558072865009,-0.1307830810546875,-7.62939453125e-05,-0.99139404296875,119.92747497558594,-7.585479736328125,-54.8753662109375,,,,,,,,,,
0,2023-08-26 17:28:09.4420,00:55,10,0,2023-08-26 17:28:38.9480,1693088918.948369,-0.00788348913192749,-0.003447994589805603,-0.00020453077740967274,-0.1305999755859375,0.0002288818359375,-0.992950439453125,119.88241577148438,-7.396728515625,-54.71195983886719,,,,,,,,,,
0,2023-08-26 17:28:09.4420,00:55,10,0,2023-08-26 17:28:39.0490,1693088919.049265,0.0008886968716979027,0.0002623213513288647,-0.0033068470656871796,-0.131072998046875,0.0023193359375,-0.9929962158203125,119.98715209960938,-7.4441070556640625,-55.03825378417969,,,,,,,,,,
0,2023-08-26 17:28:09.4420,00:55,10,0,2023-08-26 17:28:39.1490,1693088919.149024,-0.001648496720008552,-0.00427144393324852,-0.0013049489352852106,-0.130126953125,0.000213623046875,-0.9937896728515625,119.86630249023438,-7.3553924560546875,-54.92820739746094,,,,,,,,,,
0,2023-08-26 17:28:09.4420,00:55,10,0,2023-08-26 17:28:39.2490,1693088919.249147,-0.008616657927632332,-0.0039292280562222,-0.00048416267964057624,-0.12994384765625,-0.0003509521484375,-0.9936676025390625,119.97462463378906,-7.162872314453125,-55.01519775390625,,,,,,,,,,
0,2023-08-26 17:28:09.4420,00:55,10,0,2023-08-26 17:28:39.3490,1693088919.348915,-0.0046482812613248825,-0.0002918824611697346,-0.00037230990710668266,-0.128997802734375,0.00152587890625,-0.9918975830078125,119.82455444335938,-7.3172149658203125,-54.965240478515625,,,,,,,,,,
0,2023-08-26 17:28:09.4420,00:55,10,0,2023-08-26 17:28:39.4490,1693088919.4490628,-0.015804529190063477,0.007483216468244791,0.002413356676697731,-0.1323699951171875,-4.57763671875e-05,-0.9911956787109375,119.86288452148438,-6.9939117431640625,-55.22918701171875,,,,,,,,,,
0,2023-08-26 17:28:09.4420,00:55,10,0,2023-08-26 17:28:39.5490,1693088919.5487509,-0.016054334118962288,-0.0018761969404295087,0.003233876544982195,-0.129669189453125,-0.0034942626953125,-0.9889373779296875,119.985595703125,-7.568115234375,-55.12120056152344,,,,,,,,,,
0,2023-08-26 17:28:09.4420,00:55,10,0,2023-08-26 17:28:39.6490,1693088919.6491451,-0.00965768750756979,0.00908484123647213,-0.004703408572822809,-0.131927490234375,0.00860595703125,-0.9940185546875,119.85536193847656,-7.002655029296875,-55.01251220703125,,,,,,,,,,
0,2023-08-26 17:28:09.4420,00:55,10,0,2023-08-26 17:28:39.7490,1693088919.7487202,-0.007770571392029524,0.00025539714260958135,0.0064373929053545,-0.126434326171875,0.001922607421875,-0.9952392578125,120.05953979492188,-7.2184906005859375,-55.22810363769531,,,,,,,,,,
0,2023-08-26 17:28:09.4420,00:55,10,0,2023-08-26 17:28:39.8490,1693088919.849296,-0.00971654336899519,0.0020418455824255943,0.000441818410763517,-0.1243438720703125,0.0040130615234375,-0.995635986328125,120.09469604492188,-7.223785400390625,-54.97283935546875,,,,,,,,,,
0,2023-08-26 17:28:09.4420,00:55,10,0,2023-08-26 17:28:39.9490,1693088919.949184,-0.003050118451938033,-0.008097074925899506,0.004716191906481981,-0.1245574951171875,0.002410888671875,-0.99310302734375,120.04559326171875,-7.333343505859375,-54.84776306152344,,,,,,,,,,
0,2023-08-26 17:28:09.4420,00:55,10,0,2023-08-26 17:28:40.0490,1693088920.0490708,-0.006106628105044365,0.0003195793251506984,0.004555070772767067,-0.1286163330078125,0.0035552978515625,-0.9893798828125,120.13803100585938,-7.284637451171875,-54.683563232421875,,,,,,,,,,
0,2023-08-26 17:28:09.4420,00:55,10,0,2023-08-26 17:28:40.1460,1693088920.146081,-0.0018666095566004515,-0.011716044507920742,0.0022572954185307026,-0.1249847412109375,0.0040283203125,-0.9945831298828125,119.98500061035156,-6.971099853515625,-54.95426940917969,,,,,,,,,,
0,2023-08-26 17:28:09.4420,00:55,10,0,2023-08-26 17:28:40.2490,1693088920.249268,-0.026982348412275314,-0.007935155183076859,0.00737189594656229,-0.125885009765625,0.0024566650390625,-0.9928741455078125,119.997314453125,-7.0987396240234375,-54.77587890625,,,,,,,,,,
0,2023-08-26 17:28:09.4420,00:55,10,0,2023-08-26 17:28:40.3490,1693088920.349139,6.897587445564568e-05,-0.00714765815064311,-0.0003653856983873993,-0.1265106201171875,0.0072479248046875,-0.9946136474609375,119.98760986328125,-7.0451507568359375,-54.81120300292969,,,,,,,,,,
0,2023-08-26 17:28:09.4420,00:55,10,0,2023-08-26 17:28:40.4490,1693088920.448997,0.005283977836370468,-0.0065529742278158665,0.0029640982393175364,-0.1292572021484375,0.0046539306640625,-0.991973876953125,120.04231262207031,-7.11981201171875,-54.61503601074219,,,,,,,,,,
0,2023-08-26 17:28:09.4420,00:55,10,0,2023-08-26 17:28:40.5480,1693088920.54838,-0.012223643250763416,-0.0065567027777433395,-0.009415073320269585,-0.1261749267578125,0.0101776123046875,-0.9934234619140625,119.90802001953125,-6.950714111328125,-54.63102722167969,,,,,,,,,,
0,2023-08-26 17:28:09.4420,00:55,10,0,2023-08-26 17:28:40.6490,1693088920.649063,-0.019883692264556885,-0.0041553303599357605,0.002032258315011859,-0.1289825439453125,0.0017242431640625,-0.9920806884765625,120.05706787109375,-7.1901702880859375,-54.802947998046875,,,,,,,,,,
0,2023-08-26 17:28:09.4420,00:55,10,0,2023-08-26 17:28:40.7490,1693088920.749024,-0.0010189254535362124,-0.010036122053861618,-4.5540054998127744e-05,-0.1273651123046875,0.0067138671875,-0.9926910400390625,120.04275512695312,-7.282379150390625,-54.85337829589844,,,,,,,,,,
0,2023-08-26 17:28:09.4420,00:55,10,0,2023-08-26 17:28:40.8490,1693088920.848823,0.0034562505315989256,-0.01164653617888689,0.0016226640436798334,-0.1307525634765625,0.0068359375,-0.9926300048828125,119.92662048339844,-6.9862823486328125,-55.19267272949219,,,,,,,,,,
0,2023-08-26 17:28:09.4420,00:55,10,0,2023-08-26 17:28:40.9480,1693088920.948309,-0.018666096031665802,-0.0018242653459310532,-0.005151885095983744,-0.131134033203125,0.00628662109375,-0.9912261962890625,119.97480773925781,-7.19903564453125,-54.984466552734375,,,,,,,,,,
0,2023-08-26 17:28:09.4420,00:55,10,0,2023-08-26 17:28:41.0490,1693088921.0493069,0.006560697220265865,-0.002316950121894479,0.0015153386630117893,-0.130462646484375,0.005401611328125,-0.990692138671875,119.85897827148438,-7.16845703125,-55.309722900390625,,,,,,,,,,
0,2023-08-26 17:28:09.4420,00:55,10,0,2023-08-26 17:28:41.1490,1693088921.1490312,0.003489273600280285,-0.0035931370221078396,-0.0032080437522381544,-0.1272430419921875,0.0155792236328125,-0.992919921875,120.17340087890625,-6.942840576171875,-55.22428894042969,,,,,,,,,,
0,2023-08-26 17:28:09.4420,00:55,10,0,2023-08-26 17:28:41.2490,1693088921.248982,0.005816610064357519,-0.010460097342729568,0.0011222560424357653,-0.1301116943359375,0.0101470947265625,-0.9930419921875,119.97077941894531,-6.9824371337890625,-55.22984313964844,,,,,,,,,,
0,2023-08-26 17:28:09.4420,00:55,10,0,2023-08-26 17:28:41.3490,1693088921.348911,-0.0022628880105912685,-0.0015225291717797518,-0.005596899427473545,-0.1321258544921875,0.0097198486328125,-0.9935150146484375,119.84158325195312,-6.8957672119140625,-54.99114990234375,,,,,,,,,,
0,2023-08-26 17:28:09.4420,00:55,10,0,2023-08-26 17:28:41.4490,1693088921.4488049,-0.0032746228389441967,-0.003025350859388709,-0.004086354281753302,-0.1329803466796875,0.00390625,-0.9914093017578125,119.89028930664062,-7.1313323974609375,-55.0277099609375,,,,,,,,,,
0,2023-08-26 17:28:09.4420,00:55,10,0,2023-08-26 17:28:41.5480,1693088921.54843,-0.0034461303148418665,0.002013882389292121,0.00446878420189023,-0.1287078857421875,0.0121917724609375,-0.994110107421875,119.99307250976562,-6.9904022216796875,-54.77156066894531,,,,,,,,,,
0,2023-08-26 17:28:09.4420,00:55,10,0,2023-08-26 17:28:41.6490,1693088921.648818,-0.03501817211508751,0.022062957286834717,-0.006301305256783962,-0.1260528564453125,0.0119476318359375,-0.993927001953125,119.92608642578125,-6.740447998046875,-55.09111022949219,,,,,,,,,,
0,2023-08-26 17:28:09.4420,00:55,10,0,2023-08-26 17:28:41.7490,1693088921.748975,-0.02972034551203251,0.027957065030932426,-0.00011824435205198824,-0.130462646484375,0.001373291015625,-0.9918670654296875,120.07794189453125,-7.140045166015625,-54.63764953613281,,,,,,,,,,
0,2023-08-26 17:28:09.4420,00:55,10,0,2023-08-26 17:28:41.8480,1693088921.848227,-0.05674637109041214,0.05324351415038109,-0.006864830385893583,-0.1230621337890625,0.0125579833984375,-0.9955596923828125,120.06562805175781,-6.6311492919921875,-54.911346435546875,,,,,,,,,,
0,2023-08-26 17:28:09.4420,00:55,10,0,2023-08-26 17:28:41.9490,1693088921.948729,-0.32672804594039917,0.12978249788284302,-0.10948335379362106,-0.107879638671875,0.0111541748046875,-0.9965972900390625,120.54244995117188,-6.3076171875,-54.83622741699219,,,,,,,,,,
0,2023-08-26 17:28:09.4420,00:55,10,0,2023-08-26 17:28:42.0480,1693088922.04802,-0.1265997588634491,0.033296968787908554,0.030284136533737183,-0.0893707275390625,0.0596466064453125,-1.0011138916015625,121.16239929199219,-4.6042938232421875,-55.20686340332031,,,,,,,,,,
0,2023-08-26 17:28:09.4420,00:55,10,0,2023-08-26 17:28:42.1490,1693088922.148947,-0.7420019507408142,0.06870263069868088,-0.09943178296089172,-0.0998992919921875,0.049468994140625,-0.987823486328125,121.16400146484375,-3.599578857421875,-56.02972412109375,,,,,,,,,,
0,2023-08-26 17:28:09.4420,00:55,10,0,2023-08-26 17:28:42.2490,1693088922.249425,-1.1305787563323975,0.25189587473869324,-0.22142453491687775,-0.107757568359375,0.10955810546875,-1.01190185546875,121.72879028320312,1.07666015625,-56.18931579589844,,,,,,,,,,
0,2023-08-26 17:28:09.4420,00:55,10,0,2023-08-26 17:28:42.3490,1693088922.349218,-1.3344926834106445,0.26728442311286926,0.05938662588596344,0.01995849609375,0.3279266357421875,-0.9646759033203125,123.41580200195312,6.9115447998046875,-55.79911804199219,,,,,,,,,,
0,2023-08-26 17:28:09.4420,00:55,10,0,2023-08-26 17:28:42.4490,1693088922.4487891,-0.8471803069114685,0.2394421547651291,-0.2767210900783539,-0.056365966796875,0.428680419921875,-0.9289093017578125,124.64340209960938,10.802032470703125,-54.39021301269531,,,,,,,,,,
0,2023-08-26 17:28:09.4420,00:55,10,0,2023-08-26 17:28:42.5480,1693088922.548468,-0.7202971577644348,0.22789761424064636,-0.9273350834846497,-0.132720947265625,0.35662841796875,-0.8684539794921875,124.95521545410156,11.53204345703125,-54.82774353027344,,,,,,,,,,
0,2023-08-26 17:28:09.4420,00:55,10,0,2023-08-26 17:28:42.6490,1693088922.6488109,-0.39296191930770874,-0.07527291774749756,-0.680755078792572,-0.047637939453125,0.505096435546875,-0.833770751953125,124.37237548828125,11.744247436523438,-54.48748779296875,,,,,,,,,,
0,2023-08-26 17:28:09.4420,00:55,10,0,2023-08-26 17:28:42.7480,1693088922.747538,0.2270243614912033,-0.3605960011482239,-0.8215543031692505,-0.114044189453125,0.5634765625,-0.771453857421875,121.84970092773438,6.3376312255859375,-55.110382080078125,,,,,,,,,,
0,2023-08-26 17:28:09.4420,00:55,10,0,2023-08-26 17:28:42.8490,1693088922.8490028,-0.6253743767738342,-0.7835952043533325,-0.7388727068901062,-0.1551361083984375,0.4476165771484375,-0.73333740234375,118.41648864746094,-1.1759033203125,-54.39178466796875,,,,,,,,,,
0,2023-08-26 17:28:09.4420,00:55,10,0,2023-08-26 17:28:42.9490,1693088922.9488091,-1.4851258993148804,-1.0068248510360718,-1.0465352535247803,-0.2911834716796875,0.4613037109375,-0.65277099609375,113.65005493164062,-0.7233428955078125,-47.94122314453125,,,,,,,,,,
0,2023-08-26 17:28:09.4420,00:55,10,0,2023-08-26 17:28:43.0490,1693088923.049487,-1.603379249572754,-1.2940185070037842,-1.0304185152053833,-0.4593505859375,0.6141204833984375,-0.550537109375,108.17085266113281,5.1513519287109375,-38.42919921875,,,,,,,,,,
0,2023-08-26 17:28:09.4420,00:55,10,0,2023-08-26 17:28:43.1490,1693088923.149036,-3.137026071548462,-0.6065950989723206,-1.8714663982391357,-0.71624755859375,0.7001800537109375,-0.32574462890625,101.79478454589844,18.043838500976562,-25.796051025390625,,,,,,,,,,
0,2023-08-26 17:28:09.4420,00:55,10,0,2023-08-26 17:28:43.2490,1693088923.248827,0.36836257576942444,-0.7515448331832886,-2.072178363800049,-0.7571563720703125,0.6607513427734375,-0.174346923828125,94.08006286621094,23.079071044921875,-14.88787841796875,,,,,,,,,,
0,2023-08-26 17:28:09.4420,00:55,10,0,2023-08-26 17:28:43.3490,1693088923.348576,1.8693840503692627,-0.7737180590629578,-0.37511128187179565,-0.8672943115234375,0.576080322265625,-0.213775634765625,88.2945556640625,19.184310913085938,-13.504501342773438,,,,,,,,,,
0,2023-08-26 17:28:09.4420,00:55,10,0,2023-08-26 17:28:43.4490,1693088923.448977,0.331858366727829,-0.33487918972969055,-0.057680606842041016,-0.8421630859375,0.397369384765625,-0.2029266357421875,86.44078063964844,17.118453979492188,-12.835968017578125,,,,,,,,,,
0,2023-08-26 17:28:09.4420,00:55,10,0,2023-08-26 17:28:43.5490,1693088923.548764,-0.4976028501987457,-0.42538538575172424,0.2617117762565613,-0.9228515625,0.515869140625,-0.170867919921875,85.79006958007812,20.445587158203125,-10.247344970703125,,,,,,,,,,
0,2023-08-26 17:28:09.4420,00:55,10,0,2023-08-26 17:28:43.6490,1693088923.6489491,0.5162814855575562,-0.44947555661201477,0.33420273661613464,-0.8641204833984375,0.55682373046875,-0.1494598388671875,85.77389526367188,21.656631469726562,-8.562698364257812,,,,,,,,,,
0,2023-08-26 17:28:09.4420,00:55,10,0,2023-08-26 17:28:43.7480,1693088923.7482162,0.45910367369651794,-0.2676788568496704,0.40168431401252747,-0.808563232421875,0.4913787841796875,-0.063385009765625,86.27412414550781,21.8095703125,-9.6009521484375,,,,,,,,,,
0,2023-08-26 17:28:09.4420,00:55,10,0,2023-08-26 17:28:43.8490,1693088923.848699,0.7274917364120483,-0.15030987560749054,0.5792663097381592,-0.88177490234375,0.5899658203125,-0.0960235595703125,87.65577697753906,22.138992309570312,-10.81103515625,,,,,,,,,,
0,2023-08-26 17:28:09.4420,00:55,10,0,2023-08-26 17:28:43.9490,1693088923.948969,0.5651435256004333,0.042694468051195145,0.5308598875999451,-0.892547607421875,0.5564422607421875,-0.1345062255859375,89.1868896484375,21.986328125,-12.098678588867188,,,,,,,,,,
0,2023-08-26 17:28:09.4420,00:55,10,0,2023-08-26 17:28:44.0490,1693088924.048773,-0.34842589497566223,0.17502321302890778,0.2821912169456482,-0.859619140625,0.5732879638671875,-0.1966552734375,91.19895935058594,23.378372192382812,-11.767974853515625,,,,,,,,,,
0,2023-08-26 17:28:09.4420,00:55,10,0,2023-08-26 17:28:44.1490,1693088924.148737,-0.06961023807525635,-0.075258269906044,0.120388463139534,-0.81475830078125,0.5972137451171875,-0.172210693359375,92.50283813476562,24.498550415039062,-11.809921264648438,,,,,,,,,,
0,2023-08-26 17:28:09.4420,00:55,10,0,2023-08-26 17:28:44.2490,1693088924.24891,-0.26883837580680847,-0.08984706550836563,0.10728012025356293,-0.776275634765625,0.6246337890625,-0.2188568115234375,93.33241271972656,24.640670776367188,-10.165939331054688,,,,,,,,,,
0,2023-08-26 17:28:09.4420,00:55,10,0,2023-08-26 17:28:44.3490,1693088924.348778,-0.01314989011734724,-0.10881250351667404,0.061958443373441696,-0.809661865234375,0.6819610595703125,-0.2020111083984375,93.53404235839844,25.657440185546875,-9.374298095703125,,,,,,,,,,
0,2023-08-26 17:28:09.4420,00:55,10,0,2023-08-26 17:28:44.4490,1693088924.448945,-0.1290256232023239,-0.04711851105093956,0.021204886958003044,-0.763519287109375,0.69964599609375,-0.1774749755859375,94.22491455078125,26.225799560546875,-8.68402099609375,,,,,,,,,,
0,2023-08-26 17:28:09.4420,00:55,10,0,2023-08-26 17:28:44.5490,1693088924.548915,0.13285551965236664,-0.15764369070529938,-0.06761579215526581,-0.7396240234375,0.672027587890625,-0.1689453125,94.04988098144531,26.804550170898438,-8.461090087890625,,,,,,,,,,
0,2023-08-26 17:28:09.4420,00:55,10,0,2023-08-26 17:28:44.6490,1693088924.648701,0.07717574387788773,-0.10609634220600128,0.09186334162950516,-0.7442474365234375,0.68841552734375,-0.1429595947265625,93.87190246582031,26.551345825195312,-8.604171752929688,,,,,,,,,,
0,2023-08-26 17:28:09.4420,00:55,10,0,2023-08-26 17:28:44.7490,1693088924.7489228,0.05356708914041519,-0.04392298310995102,0.01509932428598404,-0.744232177734375,0.6690673828125,-0.092529296875,93.79339599609375,26.2784423828125,-8.32080078125,,,,,,,,,,
0,2023-08-26 17:28:09.4420,00:55,10,0,2023-08-26 17:28:44.8480,1693088924.847717,0.08153960108757019,-0.043352268636226654,-0.02737543173134327,-0.7622222900390625,0.6710662841796875,-0.0780181884765625,93.67192077636719,25.967483520507812,-8.287063598632812,,,,,,,,,,
0,2023-08-26 17:28:09.4420,00:55,10,0,2023-08-26 17:28:44.9480,1693088924.947684,-0.02593279629945755,0.015191202983260155,0.07677227258682251,-0.7357330322265625,0.6595458984375,-0.099151611328125,93.87843322753906,25.841629028320312,-8.417312622070312,,,,,,,,,,
0,2023-08-26 17:28:09.4420,00:55,10,0,2023-08-26 17:28:45.0480,1693088925.047916,-0.08032359927892685,-0.0007957525085657835,0.03743445873260498,-0.73858642578125,0.658203125,-0.1043701171875,93.959228515625,25.732925415039062,-8.374786376953125,,,,,,,,,,
0,2023-08-26 17:28:09.4420,00:55,10,0,2023-08-26 17:28:45.1490,1693088925.149396,0.04604312404990196,-0.021920744329690933,-0.001187503570690751,-0.7438201904296875,0.6781768798828125,-0.1075592041015625,94.05389404296875,25.887405395507812,-8.400146484375,,,,,,,,,,
0,2023-08-26 17:28:09.4420,00:55,10,0,2023-08-26 17:28:45.2490,1693088925.248687,-0.03682592511177063,-0.018374213948845863,0.0037859496660530567,-0.724639892578125,0.6541290283203125,-0.1232757568359375,94.03984069824219,26.36181640625,-8.632293701171875,,,,,,,,,,
0,2023-08-26 17:28:09.4420,00:55,10,0,2023-08-26 17:28:45.3470,1693088925.347086,0.02479988895356655,0.005754292011260986,0.05291195213794708,-0.7281036376953125,0.6496429443359375,-0.1321563720703125,94.31913757324219,25.971817016601562,-8.886993408203125,,,,,,,,,,
0,2023-08-26 17:28:09.4420,00:55,10,0,2023-08-26 17:28:45.4490,1693088925.448783,0.07492803782224655,-0.004034689161926508,0.0019259981345385313,-0.7193756103515625,0.67962646484375,-0.121063232421875,94.37591552734375,26.228347778320312,-8.85650634765625,,,,,,,,,,
0,2023-08-26 17:28:09.4420,00:55,10,0,2023-08-26 17:28:45.5490,1693088925.548851,0.03453587368130684,-0.013787983916699886,-0.03320375829935074,-0.729034423828125,0.6836395263671875,-0.1197662353515625,94.37297058105469,26.341323852539062,-8.7779541015625,,,,,,,,,,
0,2023-08-26 17:28:09.4420,00:55,10,0,2023-08-26 17:28:45.6470,1693088925.647462,0.007740743923932314,-0.021383319050073624,-0.026457173749804497,-0.730743408203125,0.68017578125,-0.11865234375,94.41007995605469,25.833892822265625,-8.441757202148438,,,,,,,,,,
0,2023-08-26 17:28:09.4420,00:55,10,0,2023-08-26 17:28:45.7470,1693088925.74735,-0.05992139130830765,-0.03141544759273529,-0.030004238709807396,-0.7299957275390625,0.671844482421875,-0.1100921630859375,94.14767456054688,26.331039428710938,-8.807022094726562,,,,,,,,,,
0,2023-08-26 17:28:09.4420,00:55,10,0,2023-08-26 17:28:45.8490,1693088925.848837,-0.06217069551348686,-0.024699220433831215,0.018547851592302322,-0.7166595458984375,0.66217041015625,-0.1114044189453125,94.01911926269531,26.041641235351562,-8.536819458007812,,,,,,,,,,
0,2023-08-26 17:28:09.4420,00:55,10,0,2023-08-26 17:28:45.9470,1693088925.947394,-0.05233351141214371,-0.04372484236955643,-0.0009744506096467376,-0.73016357421875,0.6703033447265625,-0.1105499267578125,93.93527221679688,25.964157104492188,-8.54791259765625,,,,,,,,,,
0,2023-08-26 17:28:09.4420,00:55,10,0,2023-08-26 17:28:46.0470,1693088926.047066,-0.01575472764670849,-0.025438779965043068,-0.010977549478411674,-0.7324676513671875,0.67620849609375,-0.1212005615234375,93.89540100097656,26.081039428710938,-7.996551513671875,,,,,,,,,,
0,2023-08-26 17:28:09.4420,00:55,10,0,2023-08-26 17:28:46.1470,1693088926.147245,0.03423360362648964,-0.010493920184671879,0.0054541537538170815,-0.7284393310546875,0.678863525390625,-0.1261138916015625,93.88276672363281,25.936019897460938,-8.383941650390625,,,,,,,,,,
0,2023-08-26 17:28:09.4420,00:55,10,0,2023-08-26 17:28:46.2490,1693088926.2485251,0.029095035046339035,0.020730579271912575,-0.0070885359309613705,-0.727325439453125,0.681671142578125,-0.1099090576171875,93.86485290527344,26.38116455078125,-8.065475463867188,,,,,,,,,,
0,2023-08-26 17:28:09.4420,00:55,10,0,2023-08-26 17:28:46.3470,1693088926.347475,-0.02406139485538006,0.003543335711583495,-0.004226170480251312,-0.7239227294921875,0.6743621826171875,-0.0969085693359375,94.23489379882812,25.816329956054688,-7.8925018310546875,,,,,,,,,,
0,2023-08-26 17:28:09.4420,00:55,10,0,2023-08-26 17:28:46.4470,1693088926.4474611,-0.01990792714059353,-0.0401785783469677,-0.027392208576202393,-0.7295074462890625,0.679351806640625,-0.1003875732421875,93.93116760253906,25.876510620117188,-7.6696319580078125,,,,,,,,,,
0,2023-08-26 17:28:09.4420,00:55,10,0,2023-08-26 17:28:46.5490,1693088926.5485601,0.019636817276477814,-0.040831319987773895,-0.0019981698133051395,-0.737548828125,0.677490234375,-0.1090850830078125,93.69682312011719,26.18707275390625,-7.991302490234375,,,,,,,,,,
0,2023-08-26 17:28:09.4420,00:55,10,0,2023-08-26 17:28:46.6470,1693088926.6471062,-0.05658391863107681,0.022457905113697052,-0.030649788677692413,-0.761871337890625,0.6674957275390625,-0.100311279296875,93.64698791503906,25.922576904296875,-7.8484344482421875,,,,,,,,,,
0,2023-08-26 17:28:09.4420,00:55,10,0,2023-08-26 17:28:46.7470,1693088926.747354,0.012901417911052704,-0.004092745948582888,-0.010091249831020832,-0.7436065673828125,0.6694183349609375,-0.098388671875,93.59785461425781,26.073165893554688,-8.112152099609375,,,,,,,,,,
0,2023-08-26 17:28:09.4420,00:55,10,0,2023-08-26 17:28:46.8480,1693088926.847657,-0.006564425770193338,0.002270078519359231,0.0005547364708036184,-0.72796630859375,0.66796875,-0.10498046875,93.59785461425781,26.073165893554688,-8.112152099609375,,,,,,,,,,
0,2023-08-26 17:28:09.4420,00:55,10,0,2023-08-26 17:28:46.9480,1693088926.947536,-0.004965197294950485,-0.0164218507707119,-0.04507453367114067,-0.7506866455078125,0.674652099609375,-0.1014556884765625,93.52967834472656,26.149002075195312,-7.88433837890625,,,,,,,,,,
0,2023-08-26 17:28:09.4420,00:55,10,0,2023-08-26 17:28:47.0490,1693088927.048516,0.044073984026908875,-0.003543335711583495,-0.015571502968668938,-0.7267608642578125,0.672393798828125,-0.110321044921875,93.52212524414062,26.0838623046875,-7.99298095703125,,,,,,,,,,
0,2023-08-26 17:28:09.4420,00:55,10,0,2023-08-26 17:28:47.1480,1693088927.147999,-0.04578293487429619,-0.004282363224774599,-0.012924320995807648,-0.7283477783203125,0.669677734375,-0.0943603515625,93.33511352539062,26.235214233398438,-8.179428100585938,,,,,,,,,,
0,2023-08-26 17:28:09.4420,00:55,10,0,2023-08-26 17:28:47.2470,1693088927.2471318,-0.0733754113316536,-0.06504078209400177,-0.05371862277388573,-0.7436981201171875,0.665802001953125,-0.0934295654296875,93.412841796875,26.135910034179688,-8.120513916015625,,,,,,,,,,
0,2023-08-26 17:28:09.4420,00:55,10,0,2023-08-26 17:28:47.3470,1693088927.347162,-0.018753979355096817,-0.051893558353185654,-0.029386384412646294,-0.7419281005859375,0.6575775146484375,-0.0959320068359375,93.08810424804688,26.23138427734375,-7.6153564453125,,,,,,,,,,
0,2023-08-26 17:28:09.4420,00:55,10,0,2023-08-26 17:28:47.4470,1693088927.4470181,-0.008022240363061428,-0.019845077767968178,0.013118998147547245,-0.743621826171875,0.65618896484375,-0.0869293212890625,92.78166198730469,26.331283569335938,-7.330322265625,,,,,,,,,,
0,2023-08-26 17:28:09.4420,00:55,10,0,2023-08-26 17:28:47.5480,1693088927.547605,-0.03604322299361229,0.009250489994883537,0.0026434536557644606,-0.7459716796875,0.66302490234375,-0.08026123046875,92.78096008300781,26.230819702148438,-7.4839324951171875,,,,,,,,,,
0,2023-08-26 17:28:09.4420,00:55,10,0,2023-08-26 17:28:47.6480,1693088927.647887,-0.004923386033624411,-0.01985679566860199,0.0022719427943229675,-0.7402496337890625,0.6609649658203125,-0.0850982666015625,92.84033203125,25.960189819335938,-7.46240234375,,,,,,,,,,
0,2023-08-26 17:28:09.4420,00:55,10,0,2023-08-26 17:28:47.7480,1693088927.747961,0.033740654587745667,-0.006882673595100641,0.01973189227283001,-0.7411651611328125,0.667510986328125,-0.0868988037109375,92.87629699707031,26.315948486328125,-7.5012664794921875,,,,,,,,,,
0,2023-08-26 17:28:09.4420,00:55,10,0,2023-08-26 17:28:47.8490,1693088927.849282,-0.02099636197090149,-0.003858920419588685,-0.0011867046123370528,-0.742279052734375,0.6703033447265625,-0.0869903564453125,93.04116821289062,26.324691772460938,-7.442779541015625,,,,,,,,,,
0,2023-08-26 17:28:09.4420,00:55,10,0,2023-08-26 17:28:47.9470,1693088927.946508,-0.0015249260468408465,0.003939081449061632,-0.0006255765329115093,-0.7491455078125,0.6642913818359375,-0.0886077880859375,93.06907653808594,26.088287353515625,-7.53289794921875,,,,,,,,,,
0,2023-08-26 17:28:09.4420,00:55,10,0,2023-08-26 17:28:48.0470,1693088928.047213,0.0635419562458992,-0.007183344569057226,0.004463191609829664,-0.74798583984375,0.6706695556640625,-0.091156005859375,93.2049560546875,26.14508056640625,-7.2195281982421875,,,,,,,,,,
0,2023-08-26 17:28:09.4420,00:55,10,0,2023-08-26 17:28:48.1470,1693088928.147315,-0.0003664509567897767,0.01378345675766468,-0.0029292108956724405,-0.7442779541015625,0.67291259765625,-0.0841827392578125,93.12828063964844,25.911880493164062,-7.1689300537109375,,,,,,,,,,
0,2023-08-26 17:28:09.4420,00:55,10,0,2023-08-26 17:28:48.2470,1693088928.247441,-0.0032410670537501574,-0.006128998938947916,-0.005914348177611828,-0.7383575439453125,0.6729278564453125,-0.0849609375,93.37452697753906,25.702651977539062,-7.2359771728515625,,,,,,,,,,
0,2023-08-26 17:28:09.4420,00:55,10,0,2023-08-26 17:28:48.3480,1693088928.3478088,0.005547098349779844,-0.020167319104075432,0.0024644893128424883,-0.7395477294921875,0.6704254150390625,-0.09100341796875,93.41162109375,25.990585327148438,-7.245941162109375,,,,,,,,,,
0,2023-08-26 17:28:09.4420,00:55,10,0,2023-08-26 17:28:48.4470,1693088928.447279,0.019090870395302773,-0.02949078008532524,-0.0033955303952097893,-0.7396392822265625,0.672027587890625,-0.0921783447265625,93.32154846191406,26.17572021484375,-7.3176116943359375,,,,,,,,,,
0,2023-08-26 17:28:09.4420,00:55,10,0,2023-08-26 17:28:48.5490,1693088928.54898,0.0043899547308683395,-0.006401173770427704,-0.0003014698449987918,-0.7388153076171875,0.6735687255859375,-0.0917510986328125,93.11830139160156,26.26416015625,-7.1468658447265625,,,,,,,,,,
0,2023-08-26 17:28:09.4420,00:55,10,0,2023-08-26 17:28:48.6480,1693088928.648453,0.0005611280212178826,0.009727462194859982,0.002517752582207322,-0.7404022216796875,0.674224853515625,-0.0877532958984375,93.23757934570312,26.221542358398438,-7.2864227294921875,,,,,,,,,,
0,2023-08-26 17:28:09.4420,00:55,10,0,2023-08-26 17:28:48.7470,1693088928.747251,-0.03357979655265808,0.0017054883064702153,0.0007480819476768374,-0.739410400390625,0.672454833984375,-0.0826263427734375,93.26365661621094,26.204238891601562,-7.3291168212890625,,,,,,,,,,
0,2023-08-26 17:28:09.4420,00:55,10,0,2023-08-26 17:28:48.8480,1693088928.8476,-0.03744324669241905,0.0030248183757066727,0.009416671469807625,-0.73883056640625,0.66265869140625,-0.0830841064453125,93.30387878417969,26.48443603515625,-7.1451416015625,,,,,,,,,,
0,2023-08-26 17:28:09.4420,00:55,10,0,2023-08-26 17:28:48.9480,1693088928.948162,0.022716498002409935,-0.002389654517173767,0.012085158377885818,-0.7371673583984375,0.6679534912109375,-0.0859222412109375,93.22007751464844,26.301788330078125,-7.3586883544921875,,,,,,,,,,
0,2023-08-26 17:28:09.4420,00:55,10,0,2023-08-26 17:28:49.0470,1693088929.047346,0.022716498002409935,-0.002389654517173767,0.012085158377885818,-0.737701416015625,0.6725921630859375,-0.089141845703125,93.1793212890625,26.327407836914062,-7.469512939453125,,,,,,,,,,
0,2023-08-26 17:28:09.4420,00:55,10,0,2023-08-26 17:28:49.1470,1693088929.147163,0.010999388061463833,0.013589578680694103,-0.0025979136116802692,-0.7330322265625,0.6747283935546875,-0.0904693603515625,93.17514038085938,26.320938110351562,-7.5603485107421875,,,,,,,,,,
0,2023-08-26 17:28:09.4420,00:55,10,0,2023-08-26 17:28:49.2480,1693088929.2478142,0.04629026725888252,-0.011080614291131496,-0.005067196674644947,-0.730377197265625,0.6749267578125,-0.092529296875,93.30143737792969,26.256271362304688,-7.62933349609375,,,,,,,,,,
0,2023-08-26 17:28:09.4420,00:55,10,0,2023-08-26 17:28:49.3490,1693088929.34901,-0.018144382163882256,-0.010025735944509506,-0.0005225121858529747,-0.7343902587890625,0.6697235107421875,-0.0890960693359375,93.33670043945312,26.301651000976562,-7.421661376953125,,,,,,,,,,
0,2023-08-26 17:28:09.4420,00:55,10,0,2023-08-26 17:28:49.4470,1693088929.447113,-0.04181242734193802,0.0007414240390062332,0.008924252353608608,-0.7322540283203125,0.666168212890625,-0.089141845703125,93.51406860351562,26.432205200195312,-7.460906982421875,,,,,,,,,,
0,2023-08-26 17:28:09.4420,00:55,10,0,2023-08-26 17:28:49.5470,1693088929.547174,-0.01943308673799038,-0.0029798108153045177,0.015933426097035408,-0.7325286865234375,0.6680908203125,-0.087493896484375,93.47270202636719,26.30535888671875,-7.2941131591796875,,,,,,,,,,
0,2023-08-26 17:28:09.4420,00:55,10,0,2023-08-26 17:28:49.6480,1693088929.648233,-0.0011965582380071282,-0.009149822406470776,0.01125185564160347,-0.7369537353515625,0.6730499267578125,-0.08575439453125,93.38204956054688,26.364166259765625,-7.17047119140625,,,,,,,,,,
0,2023-08-26 17:28:09.4420,00:55,10,0,2023-08-26 17:28:49.7490,1693088929.749227,-0.00956660695374012,-0.013628460466861725,-0.006716492120176554,-0.7407989501953125,0.674041748046875,-0.09130859375,93.33163452148438,26.439239501953125,-7.1980438232421875,,,,,,,,,,
0,2023-08-26 17:28:09.4420,00:55,10,0,2023-08-26 17:28:49.8470,1693088929.8470569,0.016994163393974304,-0.015246863476932049,-0.005910885985940695,-0.7407989501953125,0.674041748046875,-0.09130859375,93.32090759277344,26.23114013671875,-7.4882049560546875,,,,,,,,,,
0,2023-08-26 17:28:09.4420,00:55,10,0,2023-08-26 17:28:49.9490,1693088929.949181,-0.01404657680541277,0.00944996066391468,-0.004578772932291031,-0.7407684326171875,0.672210693359375,-0.0863189697265625,93.40086364746094,26.204940795898438,-7.1837005615234375,,,,,,,,,,
0,2023-08-26 17:28:09.4420,00:55,10,0,2023-08-26 17:28:50.0480,1693088930.0479589,-0.0033308155834674835,-0.0024708807468414307,-0.007741542998701334,-0.7407684326171875,0.672210693359375,-0.0863189697265625,93.34689331054688,26.259262084960938,-7.2104339599609375,,,,,,,,,,
0,2023-08-26 17:28:09.4420,00:55,10,0,2023-08-26 17:28:50.1470,1693088930.146997,0.021646440029144287,-0.010450776666402817,-0.015252189710736275,-0.746551513671875,0.6768646240234375,-0.0871124267578125,93.35208129882812,26.34857177734375,-7.0847015380859375,,,,,,,,,,
0,2023-08-26 17:28:09.4420,00:55,10,0,2023-08-26 17:28:50.2460,1693088930.2463799,0.03995966538786888,-0.011503257788717747,-0.007841943763196468,-0.7396087646484375,0.6783905029296875,-0.089263916015625,93.4967041015625,26.054275512695312,-6.8345947265625,,,,,,,,,,
0,2023-08-26 17:28:09.4420,00:55,10,0,2023-08-26 17:28:50.3490,1693088930.349374,0.0025545042008161545,-0.013170396909117699,-0.008384962566196918,-0.7328338623046875,0.678497314453125,-0.08782958984375,93.26365661621094,26.273635864257812,-6.989837646484375,,,,,,,,,,
0,2023-08-26 17:28:09.4420,00:55,10,0,2023-08-26 17:28:50.4490,1693088930.4489841,-0.028423918411135674,0.006756706163287163,0.0034107104875147343,-0.736053466796875,0.6663818359375,-0.0878753662109375,93.2911376953125,26.40179443359375,-7.2906646728515625,,,,,,,,,,
0,2023-08-26 17:28:09.4420,00:55,10,0,2023-08-26 17:28:50.5490,1693088930.549048,0.01721413992345333,-0.029743514955043793,-0.00800040178000927,-0.7332916259765625,0.66748046875,-0.0869903564453125,93.25283813476562,26.431488037109375,-7.227569580078125,,,,,,,,,,
0,2023-08-26 17:28:09.4420,00:55,10,0,2023-08-26 17:28:50.6490,1693088930.6488,0.016168583184480667,-0.020371317863464355,-0.0017291904659941792,-0.7384796142578125,0.6760101318359375,-0.089813232421875,93.11505126953125,26.459732055664062,-7.4776153564453125,,,,,,,,,,
0,2023-08-26 17:28:09.4420,00:55,10,0,2023-08-26 17:28:50.7470,1693088930.7470942,-0.005897836294025183,0.012198076583445072,-0.0073074474930763245,-0.7382049560546875,0.6768646240234375,-0.08831787109375,93.31303405761719,26.342041015625,-7.6696014404296875,,,,,,,,,,
0,2023-08-26 17:28:09.4420,00:55,10,0,2023-08-26 17:28:50.8470,1693088930.8467221,-0.01684076525270939,0.012537362985312939,0.002781671704724431,-0.7356719970703125,0.6688385009765625,-0.0805206298828125,93.18205261230469,26.358245849609375,-7.32525634765625,,,,,,,,,,
0,2023-08-26 17:28:09.4420,00:55,10,0,2023-08-26 17:28:50.9470,1693088930.947136,-0.00842464342713356,-0.01305454969406128,0.002298840554431081,-0.7325592041015625,0.670654296875,-0.08245849609375,93.12611389160156,26.570098876953125,-7.0373992919921875,,,,,,,,,,
0,2023-08-26 17:28:09.4420,00:55,10,0,2023-08-26 17:28:51.0470,1693088931.0472589,-0.01025849673897028,-0.017949972301721573,0.003659183392301202,-0.7286834716796875,0.6710662841796875,-0.0865631103515625,93.11087036132812,26.477813720703125,-7.0447845458984375,,,,,,,,,,
0,2023-08-26 17:28:09.4420,00:55,10,0,2023-08-26 17:28:51.1470,1693088931.147252,0.0023180153220891953,-0.007813181728124619,0.0036690370179712772,-0.735595703125,0.6728515625,-0.0926666259765625,93.21035766601562,26.48565673828125,-7.2632904052734375,,,,,,,,,,
0,2023-08-26 17:28:09.4420,00:55,10,0,2023-08-26 17:28:51.2480,1693088931.247676,0.012685434892773628,-0.0032754219137132168,-0.004801146686077118,-0.738525390625,0.6728363037109375,-0.08251953125,93.41134643554688,26.11474609375,-7.009521484375,,,,,,,,,,
0,2023-08-26 17:28:09.4420,00:55,10,0,2023-08-26 17:28:51.3480,1693088931.348112,-0.07917684316635132,0.009643572382628918,-0.02629099227488041,-0.734893798828125,0.6729736328125,-0.0843505859375,93.23155212402344,26.476287841796875,-7.3023529052734375,,,,,,,,,,
0,2023-08-26 17:28:09.4420,00:55,10,0,2023-08-26 17:28:51.4470,1693088931.4469419,0.10345715284347534,-0.015570703893899918,-0.00529542937874794,-0.7436370849609375,0.6688232421875,-0.0909881591796875,93.07376098632812,26.328750610351562,-7.24688720703125,,,,,,,,,,
0,2023-08-26 17:28:09.4420,00:55,10,0,2023-08-26 17:28:51.5480,1693088931.547544,0.054189469665288925,0.008855010382831097,-0.005290103144943714,-0.73486328125,0.674530029296875,-0.089630126953125,93.17533874511719,26.380142211914062,-7.15924072265625,,,,,,,,,,
0,2023-08-26 17:28:09.4420,00:55,10,0,2023-08-26 17:28:51.6470,1693088931.646926,0.038723159581422806,-0.0031491878908127546,0.012952017597854137,-0.729522705078125,0.6759490966796875,-0.08270263671875,93.29364013671875,26.2518310546875,-7.284027099609375,,,,,,,,,,
0,2023-08-26 17:28:09.4420,00:55,10,0,2023-08-26 17:28:51.7470,1693088931.746537,-0.06435928493738174,0.009602027013897896,0.012970393523573875,-0.728912353515625,0.6733856201171875,-0.0934906005859375,93.37152099609375,26.402313232421875,-7.1395263671875,,,,,,,,,,
0,2023-08-26 17:28:09.4420,00:55,10,0,2023-08-26 17:28:51.8480,1693088931.84839,-0.0015531554818153381,-0.02050740458071232,0.01618216559290886,-0.7387542724609375,0.66552734375,-0.0868988037109375,93.25747680664062,26.589035034179688,-7.4527740478515625,,,,,,,,,,
0,2023-08-26 17:28:09.4420,00:55,10,0,2023-08-26 17:28:51.9480,1693088931.948003,-0.012195147573947906,-0.0028186896815896034,0.0020389161072671413,-0.7387847900390625,0.6738739013671875,-0.0892333984375,93.11318969726562,26.488479614257812,-7.370361328125,,,,,,,,,,
0,2023-08-26 17:28:09.4420,00:55,10,0,2023-08-26 17:28:52.0490,1693088932.048678,-0.037573207169771194,0.018545188009738922,-0.004708468914031982,-0.7314453125,0.6757659912109375,-0.093414306640625,93.3919677734375,26.649185180664062,-7.2421417236328125,,,,,,,,,,
0,2023-08-26 17:28:09.4420,00:55,10,0,2023-08-26 17:28:52.1480,1693088932.148253,0.0068208882585167885,-0.013740579597651958,0.003635214874520898,-0.72894287109375,0.6681671142578125,-0.0859832763671875,93.24923706054688,26.793289184570312,-7.3225860595703125,,,,,,,,,,
0,2023-08-26 17:28:09.4420,00:55,10,0,2023-08-26 17:28:52.2500,1693088932.249661,0.009843309409916401,-0.010753045789897442,-0.008982310071587563,-0.7354278564453125,0.6732940673828125,-0.0825347900390625,93.33076477050781,26.82177734375,-7.373992919921875,,,,,,,,,,
0,2023-08-26 17:28:09.4420,00:55,10,0,2023-08-26 17:28:52.3490,1693088932.3492842,0.02515408955514431,-0.010159160941839218,-0.01594620943069458,-0.7408447265625,0.6737213134765625,-0.0806732177734375,93.31623840332031,26.805953979492188,-7.250213623046875,,,,,,,,,,
0,2023-08-26 17:28:09.4420,00:55,10,0,2023-08-26 17:28:52.4490,1693088932.448574,0.04487266764044762,-0.02406831830739975,-0.01079512294381857,-0.7385711669921875,0.6794586181640625,-0.090728759765625,93.28507995605469,26.722824096679688,-7.3672637939453125,,,,,,,,,,
0,2023-08-26 17:28:09.4420,00:55,10,0,2023-08-26 17:28:52.5480,1693088932.548286,-0.0031308121979236603,-0.004559331573545933,-0.0007121292874217033,-0.7339630126953125,0.67755126953125,-0.0925750732421875,93.26858520507812,26.6981201171875,-7.36737060546875,,,,,,,,,,
0,2023-08-26 17:28:09.4420,00:55,10,0,2023-08-26 17:28:52.6490,1693088932.648864,0.004190484061837196,-0.0046179210767149925,0.005795837379992008,-0.73333740234375,0.67755126953125,-0.089996337890625,93.45928955078125,26.366241455078125,-7.3314666748046875,,,,,,,,,,
0,2023-08-26 17:28:09.4420,00:55,10,0,2023-08-26 17:28:52.7480,1693088932.748466,-0.01876569725573063,0.003614974906668067,-0.00538491178303957,-0.7348480224609375,0.6761322021484375,-0.0901031494140625,93.43577575683594,26.471160888671875,-6.9989471435546875,,,,,,,,,,
0,2023-08-26 17:28:09.4420,00:55,10,0,2023-08-26 17:28:52.8490,1693088932.8485022,0.019398199394345284,-0.006343916058540344,-0.013146961107850075,-0.7344818115234375,0.6761322021484375,-0.08953857421875,93.47384643554688,26.517745971679688,-7.4142303466796875,,,,,,,,,,
0,2023-08-26 17:28:09.4420,00:55,10,0,2023-08-26 17:28:52.9460,1693088932.946286,0.04777471348643303,-0.009976468048989773,-0.007725830189883709,-0.7388763427734375,0.6795806884765625,-0.0921783447265625,93.5640869140625,26.5079345703125,-7.3406219482421875,,,,,,,,,,
0,2023-08-26 17:28:09.4420,00:55,10,0,2023-08-26 17:28:53.0490,1693088933.048524,0.011476360261440277,0.0011440940434113145,-0.0033270870335400105,-0.7340087890625,0.6808319091796875,-0.084075927734375,93.72805786132812,26.169921875,-7.2296295166015625,,,,,,,,,,
0,2023-08-26 17:28:09.4420,00:55,10,0,2023-08-26 17:28:53.1480,1693088933.14837,-0.006250705569982529,-0.0031494542490690947,0.0046791741624474525,-0.73590087890625,0.6776123046875,-0.083343505859375,93.55946350097656,25.906768798828125,-6.71429443359375,,,,,,,,,,
0,2023-08-26 17:28:09.4420,00:55,10,0,2023-08-26 17:28:53.2480,1693088933.248304,-0.035117242485284805,-0.008294148370623589,0.011097125709056854,-0.7313232421875,0.6723785400390625,-0.08697509765625,93.57290649414062,26.187301635742188,-7.1457366943359375,,,,,,,,,,
0,2023-08-26 17:28:09.4420,00:55,10,0,2023-08-26 17:28:53.3480,1693088933.348213,-0.0016247945604845881,-0.01725994609296322,0.00932346098124981,-0.7323455810546875,0.67449951171875,-0.0896453857421875,93.49862670898438,26.416107177734375,-7.1762847900390625,,,,,,,,,,
0,2023-08-26 17:28:09.4420,00:55,10,0,2023-08-26 17:28:53.4480,1693088933.4482632,-0.004713795147836208,0.0016098808264359832,0.004010454285889864,-0.7344207763671875,0.6745452880859375,-0.0922698974609375,93.60929870605469,26.207931518554688,-7.2606658935546875,,,,,,,,,,
0,2023-08-26 17:28:09.4420,00:55,10,0,2023-08-26 17:28:53.5480,1693088933.5481539,-0.015841014683246613,-0.011652395129203796,0.06649167835712433,-0.7222442626953125,0.6510467529296875,-0.08056640625,93.52047729492188,26.428237915039062,-7.42987060546875,,,,,,,,,,
0,2023-08-26 17:28:09.4420,00:55,10,0,2023-08-26 17:28:53.6480,1693088933.648261,-0.041248105466365814,0.0003328951424919069,0.02406751923263073,-0.7266082763671875,0.665252685546875,-0.0816650390625,93.392333984375,26.856964111328125,-7.346160888671875,,,,,,,,,,
0,2023-08-26 17:28:09.4420,00:55,10,0,2023-08-26 17:28:53.7460,1693088933.7464561,0.03858627378940582,-0.010661698877811432,-0.01360209472477436,-0.735626220703125,0.67828369140625,-0.0816802978515625,93.509521484375,26.585739135742188,-7.4639892578125,,,,,,,,,,
0,2023-08-26 17:28:09.4420,00:55,10,0,2023-08-26 17:28:53.8480,1693088933.84836,0.024928785860538483,-0.011100588366389275,0.0013137373607605696,-0.73028564453125,0.67431640625,-0.08843994140625,93.62088012695312,26.636978149414062,-7.4892120361328125,,,,,,,,,,
0,2023-08-26 17:28:09.4420,00:55,10,0,2023-08-26 17:28:53.9480,1693088933.948347,0.030119286850094795,-0.019514579325914383,-0.004606469534337521,-0.734649658203125,0.6808013916015625,-0.0919342041015625,93.5609130859375,26.545257568359375,-7.4215545654296875,,,,,,,,,,
0,2023-08-26 17:28:09.4420,00:55,10,0,2023-08-26 17:28:54.0490,1693088934.049211,0.0026405241806060076,-0.0008873652550391853,-0.0013462279457598925,-0.7293548583984375,0.67877197265625,-0.0920562744140625,93.58065795898438,26.540023803710938,-7.4408111572265625,,,,,,,,,,
0,2023-08-26 17:28:09.4420,00:55,10,0,2023-08-26 17:28:54.1480,1693088934.148272,-0.004305532667785883,0.010131996124982834,0.006347644608467817,-0.72918701171875,0.6781463623046875,-0.088958740234375,93.80046081542969,26.3734130859375,-7.4552459716796875,,,,,,,,,,
