SessionID,SessionDate,SessionDuration,SessionFrequency,RecordID,Timestamp,timeIntervalSince1970,GyroX,GyroY,GyroZ,AccX,AccY,AccZ,MagX,MagY,MagZ,WatchTimestamp,WatchtImeIntervalSince1970,WatchGyroX,WatchGyroY,WatchGyroZ,WatchAccX,WatchAccY,WatchAccZ
0,2023-08-26 17:24:32.7410,01:07,10,0,2023-08-26 17:24:32.8450,1693088672.845008,0.03615400940179825,-0.010402839630842209,0.00043356261448934674,-0.0225067138671875,0.328125,-0.9484405517578125,116.99723815917969,9.781707763671875,-53.667022705078125,,,,,,,,,,
0,2023-08-26 17:24:32.7410,01:07,10,0,2023-08-26 17:24:32.9440,1693088672.9444718,0.039265912026166916,-0.0018077536951750517,0.00065460498444736,-0.0215911865234375,0.334197998046875,-0.9484405517578125,117.05946350097656,9.686981201171875,-54.029266357421875,,,,,,,,,,
0,2023-08-26 17:24:32.7410,01:07,10,0,2023-08-26 17:24:33.0450,1693088673.044692,0.035346005111932755,-0.004192614462226629,0.02003442868590355,-0.027496337890625,0.3324737548828125,-0.9485321044921875,117.12724304199219,9.549591064453125,-54.37396240234375,,,,,,,,,,
0,2023-08-26 17:24:32.7410,01:07,10,0,2023-08-26 17:24:33.1440,1693088673.144384,-0.13175909221172333,0.018200043588876724,-0.011752263642847538,-0.0147705078125,0.3281097412109375,-0.9505615234375,117.24259948730469,9.787521362304688,-54.333251953125,,,,,,,,,,
0,2023-08-26 17:24:32.7410,01:07,10,0,2023-08-26 17:24:33.2440,1693088673.24375,0.019570505246520042,0.009965548291802406,-0.0022770026698708534,-0.02642822265625,0.32147216796875,-0.944366455078125,117.19499206542969,9.640960693359375,-54.47857666015625,,,,,,,,,,
0,2023-08-26 17:24:32.7410,01:07,10,0,2023-08-26 17:24:33.3440,1693088673.344157,-0.021877868101000786,0.004196343012154102,0.0003944141499232501,-0.021636962890625,0.3164215087890625,-0.9486236572265625,117.39486694335938,9.538726806640625,-54.07794189453125,,,,,,,,,,
0,2023-08-26 17:24:32.7410,01:07,10,0,2023-08-26 17:24:33.4440,1693088673.444432,0.06709754467010498,0.009417470544576645,0.018735604360699654,-0.0158538818359375,0.328094482421875,-0.9551239013671875,117.5513916015625,9.13677978515625,-53.83775329589844,,,,,,,,,,
0,2023-08-26 17:24:32.7410,01:07,10,0,2023-08-26 17:24:33.5450,1693088673.544787,-0.004759334959089756,0.039922382682561874,-0.04980830103158951,-0.0232086181640625,0.3197784423828125,-0.9512939453125,117.57829284667969,9.533401489257812,-53.75923156738281,,,,,,,,,,
0,2023-08-26 17:24:32.7410,01:07,10,0,2023-08-26 17:24:33.6450,1693088673.644665,0.032756879925727844,0.007237140089273453,-0.009709352627396584,-0.014190673828125,0.3131561279296875,-0.947540283203125,117.80780029296875,9.2735595703125,-53.80351257324219,,,,,,,,,,
0,2023-08-26 17:24:32.7410,01:07,10,0,2023-08-26 17:24:33.7430,1693088673.7430758,-0.014882010407745838,-0.0028767467010766268,0.01666552945971489,-0.0278778076171875,0.3099365234375,-0.948455810546875,117.54640197753906,9.269393920898438,-53.590728759765625,,,,,,,,,,
0,2023-08-26 17:24:32.7410,01:07,10,0,2023-08-26 17:24:33.8440,1693088673.8443952,-0.052810750901699066,0.024697888642549515,-0.022003035992383957,-0.025604248046875,0.3122100830078125,-0.9481201171875,117.79081726074219,9.459640502929688,-53.760467529296875,,,,,,,,,,
0,2023-08-26 17:24:32.7410,01:07,10,0,2023-08-26 17:24:33.9420,1693088673.9424272,-0.020953219383955002,0.0038962047547101974,0.0024197481106966734,-0.0181427001953125,0.3213348388671875,-0.9564666748046875,117.82168579101562,9.506698608398438,-53.68572998046875,,,,,,,,,,
0,2023-08-26 17:24:32.7410,01:07,10,0,2023-08-26 17:24:34.0450,1693088674.044537,-0.0407964326441288,0.015961656346917152,-0.0004990763845853508,-0.0250396728515625,0.3012237548828125,-0.9498291015625,117.82072448730469,9.254379272460938,-53.79356384277344,,,,,,,,,,
0,2023-08-26 17:24:32.7410,01:07,10,0,2023-08-26 17:24:34.1440,1693088674.144213,-0.034323085099458694,-0.010384996421635151,-0.006577474996447563,-0.006072998046875,0.3337860107421875,-0.954071044921875,117.8338623046875,9.583053588867188,-53.4134521484375,,,,,,,,,,
0,2023-08-26 17:24:32.7410,01:07,10,0,2023-08-26 17:24:34.2450,1693088674.244574,0.02250104770064354,-0.008087754249572754,-0.0030399984680116177,-0.0133209228515625,0.32672119140625,-0.9459228515625,117.94711303710938,9.751205444335938,-53.866973876953125,,,,,,,,,,
0,2023-08-26 17:24:32.7410,01:07,10,0,2023-08-26 17:24:34.3450,1693088674.344578,-0.03299683332443237,0.0009712548344396055,-0.015894010663032532,-0.0108795166015625,0.3374176025390625,-0.9463043212890625,117.98423767089844,9.787322998046875,-53.77027893066406,,,,,,,,,,
0,2023-08-26 17:24:32.7410,01:07,10,0,2023-08-26 17:24:34.4450,1693088674.4445062,0.032405342906713486,-0.03153395652770996,0.020416324958205223,-0.0233001708984375,0.3365478515625,-0.94012451171875,117.92655944824219,9.814834594726562,-53.997894287109375,,,,,,,,,,
0,2023-08-26 17:24:32.7410,01:07,10,0,2023-08-26 17:24:34.5450,1693088674.544588,0.02418682910501957,-0.020487431436777115,-0.0317842960357666,-0.00555419921875,0.3433837890625,-0.9479522705078125,117.84489440917969,9.956680297851562,-54.17619323730469,,,,,,,,,,
0,2023-08-26 17:24:32.7410,01:07,10,0,2023-08-26 17:24:34.6450,1693088674.6445699,-0.011151454411447048,0.01841522566974163,0.0002719087351579219,-0.0226287841796875,0.3238372802734375,-0.94793701171875,117.859130859375,9.73980712890625,-54.244598388671875,,,,,,,,,,
0,2023-08-26 17:24:32.7410,01:07,10,0,2023-08-26 17:24:34.7440,1693088674.744135,0.004059722647070885,-0.003638410707935691,0.018157431855797768,-0.0160064697265625,0.3429412841796875,-0.9476165771484375,118.02130126953125,9.896575927734375,-54.3712158203125,,,,,,,,,,
0,2023-08-26 17:24:32.7410,01:07,10,0,2023-08-26 17:24:34.8440,1693088674.844379,0.0006838997360318899,0.01143002137541771,-0.0024607607629150152,-0.0137481689453125,0.319854736328125,-0.947296142578125,118.03663635253906,9.544540405273438,-54.093231201171875,,,,,,,,,,
0,2023-08-26 17:24:32.7410,01:07,10,0,2023-08-26 17:24:34.9440,1693088674.944227,-0.01715714856982231,-0.0002335592289455235,0.009376989677548409,-0.006500244140625,0.322235107421875,-0.952545166015625,117.98918151855469,9.523284912109375,-54.2100830078125,,,,,,,,,,
0,2023-08-26 17:24:32.7410,01:07,10,0,2023-08-26 17:24:35.0440,1693088675.044277,-0.04585430771112442,-0.0010727213229984045,-0.0012234562309458852,-0.0084075927734375,0.334197998046875,-0.95147705078125,117.933349609375,9.709671020507812,-53.769683837890625,,,,,,,,,,
0,2023-08-26 17:24:32.7410,01:07,10,0,2023-08-26 17:24:35.1440,1693088675.1440191,-0.017002951353788376,0.02015799842774868,-0.009459015913307667,-0.0061492919921875,0.328887939453125,-0.9436492919921875,117.91746520996094,9.929595947265625,-53.622528076171875,,,,,,,,,,
0,2023-08-26 17:24:32.7410,01:07,10,0,2023-08-26 17:24:35.2450,1693088675.2445722,-0.07438981533050537,0.013215670362114906,0.013285977765917778,-0.0103759765625,0.3329925537109375,-0.9451904296875,118.15184020996094,10.31597900390625,-53.63615417480469,,,,,,,,,,
0,2023-08-26 17:24:32.7410,01:07,10,0,2023-08-26 17:24:35.3430,1693088675.343415,-0.016271913424134254,-0.009459547698497772,0.025070998817682266,-0.0040740966796875,0.3521270751953125,-0.9434967041015625,118.15234375,10.319107055664062,-53.54693603515625,,,,,,,,,,
0,2023-08-26 17:24:32.7410,01:07,10,0,2023-08-26 17:24:35.4440,1693088675.4444451,-0.026370886713266373,0.01912575773894787,0.0248401015996933,-0.0083160400390625,0.34002685546875,-0.9392547607421875,118.29728698730469,10.401641845703125,-53.45491027832031,,,,,,,,,,
0,2023-08-26 17:24:32.7410,01:07,10,0,2023-08-26 17:24:35.5450,1693088675.544806,0.021312212571501732,0.021206751465797424,-0.007650196552276611,0.000274658203125,0.3569488525390625,-0.937591552734375,118.38363647460938,10.409515380859375,-53.53758239746094,,,,,,,,,,
0,2023-08-26 17:24:32.7410,01:07,10,0,2023-08-26 17:24:35.6440,1693088675.644331,0.011297129094600677,-0.0073079802095890045,-0.0065503111109137535,0.007598876953125,0.342254638671875,-0.9411163330078125,118.18656921386719,10.373428344726562,-53.61793518066406,,,,,,,,,,
0,2023-08-26 17:24:32.7410,01:07,10,0,2023-08-26 17:24:35.7440,1693088675.744312,0.03063380904495716,-0.016217852011322975,0.0007313040550798178,0.0007171630859375,0.3375244140625,-0.943145751953125,118.25743103027344,10.546401977539062,-53.48997497558594,,,,,,,,,,
0,2023-08-26 17:24:32.7410,01:07,10,0,2023-08-26 17:24:35.8440,1693088675.844274,-0.0017172062071040273,8.415588672505692e-05,-0.003561178920790553,-0.00390625,0.3424530029296875,-0.9423828125,118.21463012695312,10.59075927734375,-53.87882995605469,,,,,,,,,,
0,2023-08-26 17:24:32.7410,01:07,10,0,2023-08-26 17:24:35.9420,1693088675.941859,-0.007287207525223494,0.0030429279431700706,-0.0029710223898291588,-0.0051422119140625,0.3409881591796875,-0.9407806396484375,118.34825134277344,10.563308715820312,-53.07154846191406,,,,,,,,,,
0,2023-08-26 17:24:32.7410,01:07,10,0,2023-08-26 17:24:36.0430,1693088676.043097,0.0026442527305334806,0.016205335035920143,0.0005408879951573908,0.0048065185546875,0.3465118408203125,-0.9417266845703125,118.43899536132812,10.241836547851562,-53.247314453125,,,,,,,,,,
0,2023-08-26 17:24:32.7410,01:07,10,0,2023-08-26 17:24:36.1440,1693088676.143914,-0.021204087883234024,0.008281898684799671,-0.0016048208344727755,0.004730224609375,0.341400146484375,-0.9425811767578125,118.61053466796875,10.603775024414062,-53.3826904296875,,,,,,,,,,
0,2023-08-26 17:24:32.7410,01:07,10,0,2023-08-26 17:24:36.2440,1693088676.243783,-0.06918705999851227,-0.0004713795206043869,-0.008133294060826302,0.003448486328125,0.33953857421875,-0.9410552978515625,118.52180480957031,11.038589477539062,-53.291961669921875,,,,,,,,,,
0,2023-08-26 17:24:32.7410,01:07,10,0,2023-08-26 17:24:36.3420,1693088676.341992,0.013220996595919132,-0.008520251139998436,0.003263437654823065,0.0044708251953125,0.358062744140625,-0.941253662109375,118.69422912597656,10.891952514648438,-53.496246337890625,,,,,,,,,,
0,2023-08-26 17:24:32.7410,01:07,10,0,2023-08-26 17:24:36.4440,1693088676.4443278,-0.041421208530664444,0.007899468764662743,0.0027957865968346596,0.0011749267578125,0.3535919189453125,-0.9389495849609375,118.64004516601562,10.879547119140625,-53.38258361816406,,,,,,,,,,
0,2023-08-26 17:24:32.7410,01:07,10,0,2023-08-26 17:24:36.5440,1693088676.543844,-0.03172703832387924,-0.004815527703613043,-0.0023105584550648928,0.008819580078125,0.3623809814453125,-0.93975830078125,118.65870666503906,11.194137573242188,-53.77061462402344,,,,,,,,,,
0,2023-08-26 17:24:32.7410,01:07,10,0,2023-08-26 17:24:36.6440,1693088676.643933,0.013727263547480106,0.008074704557657242,0.0024983114562928677,0.0036163330078125,0.356170654296875,-0.9369354248046875,118.45433044433594,11.325439453125,-53.52876281738281,,,,,,,,,,
0,2023-08-26 17:24:32.7410,01:07,10,0,2023-08-26 17:24:36.7440,1693088676.743871,-0.02292635478079319,0.009034507907927036,-0.00045327001134864986,0.007171630859375,0.3570098876953125,-0.93719482421875,118.54959106445312,11.16314697265625,-53.6204833984375,,,,,,,,,,
0,2023-08-26 17:24:32.7410,01:07,10,0,2023-08-26 17:24:36.8440,1693088676.8443022,-0.02364966832101345,-0.0008471515611745417,-0.00017789915727917105,0.0098114013671875,0.3525848388671875,-0.9388885498046875,118.59590148925781,11.232940673828125,-53.402984619140625,,,,,,,,,,
0,2023-08-26 17:24:32.7410,01:07,10,0,2023-08-26 17:24:36.9440,1693088676.94413,-0.008184692822396755,-0.010571950115263462,-0.002558232517912984,0.0142974853515625,0.362579345703125,-0.9415130615234375,118.73777770996094,11.229812622070312,-53.375,,,,,,,,,,
0,2023-08-26 17:24:32.7410,01:07,10,0,2023-08-26 17:24:37.0440,1693088677.044088,0.018076738342642784,-0.015785355120897293,0.007242732681334019,0.0085906982421875,0.355072021484375,-0.93768310546875,118.62612915039062,11.364761352539062,-53.6529541015625,,,,,,,,,,
0,2023-08-26 17:24:32.7410,01:07,10,0,2023-08-26 17:24:37.1430,1693088677.143086,-0.017292704433202744,-0.004573978949338198,0.003052248852327466,0.006072998046875,0.361297607421875,-0.93670654296875,118.55299377441406,11.20257568359375,-53.12559509277344,,,,,,,,,,
0,2023-08-26 17:24:32.7410,01:07,10,0,2023-08-26 17:24:37.2450,1693088677.2447062,-0.0002639192680362612,-0.012197011150419712,-0.0033891387283802032,0.0053253173828125,0.3568267822265625,-0.9362945556640625,118.41946411132812,11.42816162109375,-53.199127197265625,,,,,,,,,,
0,2023-08-26 17:24:32.7410,01:07,10,0,2023-08-26 17:24:37.3450,1693088677.3446898,0.007527957204729319,-0.01734117418527603,-0.006302903406322002,0.0053558349609375,0.3621826171875,-0.934661865234375,118.21548461914062,11.354721069335938,-53.53678894042969,,,,,,,,,,
0,2023-08-26 17:24:32.7410,01:07,10,0,2023-08-26 17:24:37.4440,1693088677.443853,-0.02695837989449501,-0.01571185141801834,-0.011328288353979588,0.0022735595703125,0.35772705078125,-0.93621826171875,118.22647094726562,11.358932495117188,-53.309234619140625,,,,,,,,,,
0,2023-08-26 17:24:32.7410,01:07,10,0,2023-08-26 17:24:37.5440,1693088677.5443869,0.006976416800171137,-0.014157097786664963,-0.00444002216681838,0.0055999755859375,0.35498046875,-0.9369964599609375,118.14901733398438,11.593704223632812,-53.479644775390625,,,,,,,,,,
0,2023-08-26 17:24:32.7410,01:07,10,0,2023-08-26 17:24:37.6440,1693088677.64392,0.005919940769672394,-0.0268329456448555,-0.005801163613796234,0.0064849853515625,0.3687591552734375,-0.936187744140625,118.12677001953125,11.732940673828125,-53.74310302734375,,,,,,,,,,
0,2023-08-26 17:24:32.7410,01:07,10,0,2023-08-26 17:24:37.7440,1693088677.7443662,0.005758286919444799,-0.0067902617156505585,-0.004910602699965239,-0.003814697265625,0.36248779296875,-0.93365478515625,118.18701171875,11.616363525390625,-53.71343994140625,,,,,,,,,,
0,2023-08-26 17:24:32.7410,01:07,10,0,2023-08-26 17:24:37.8440,1693088677.843977,-0.01449851505458355,-0.007534881588071585,-0.00261868629604578,0.0028076171875,0.3720245361328125,-0.9362640380859375,118.07144165039062,11.893478393554688,-53.56599426269531,,,,,,,,,,
0,2023-08-26 17:24:32.7410,01:07,10,0,2023-08-26 17:24:37.9440,1693088677.9441838,-0.014386129565536976,-0.0016279903938993812,-0.0051750545389950275,-0.0019073486328125,0.364593505859375,-0.9326324462890625,118.05050659179688,11.62109375,-53.68684387207031,,,,,,,,,,
0,2023-08-26 17:24:32.7410,01:07,10,0,2023-08-26 17:24:38.0440,1693088678.043968,0.0025923210196197033,-0.015254853293299675,-0.0007858988246880472,0.0001068115234375,0.361175537109375,-0.9362335205078125,117.96406555175781,11.839736938476562,-54.104705810546875,,,,,,,,,,
0,2023-08-26 17:24:32.7410,01:07,10,0,2023-08-26 17:24:38.1440,1693088678.14428,0.012973588891327381,-0.011608985252678394,-0.0010993528412654996,-0.0008697509765625,0.370086669921875,-0.934234619140625,117.94718933105469,11.831344604492188,-53.87017822265625,,,,,,,,,,
0,2023-08-26 17:24:32.7410,01:07,10,0,2023-08-26 17:24:38.2440,1693088678.244203,-0.02443237230181694,-0.01768978126347065,-0.017528127878904343,3.0517578125e-05,0.3657989501953125,-0.9352264404296875,117.97174072265625,11.86480712890625,-53.85382080078125,,,,,,,,,,
0,2023-08-26 17:24:32.7410,01:07,10,0,2023-08-26 17:24:38.3450,1693088678.3446841,-0.007872303947806358,-0.010237989947199821,-0.000245543458731845,-0.00994873046875,0.369415283203125,-0.93487548828125,117.91159057617188,11.710739135742188,-53.581085205078125,,,,,,,,,,
0,2023-08-26 17:24:32.7410,01:07,10,0,2023-08-26 17:24:38.4440,1693088678.444169,-0.015528892166912556,-0.012552010826766491,-0.0041462755762040615,-0.0015716552734375,0.3597869873046875,-0.93365478515625,117.87547302246094,11.585311889648438,-53.623687744140625,,,,,,,,,,
0,2023-08-26 17:24:32.7410,01:07,10,0,2023-08-26 17:24:38.5440,1693088678.543982,0.027027355507016182,-0.012652412056922913,0.0022040321491658688,-0.0069732666015625,0.3692169189453125,-0.93267822265625,117.79962158203125,11.5794677734375,-53.660430908203125,,,,,,,,,,
0,2023-08-26 17:24:32.7410,01:07,10,0,2023-08-26 17:24:38.6440,1693088678.6439362,-0.015232748351991177,-0.011605523526668549,-0.011292069219052792,-0.0060882568359375,0.3663787841796875,-0.9342041015625,117.74580383300781,11.895309448242188,-53.4920654296875,,,,,,,,,,
0,2023-08-26 17:24:32.7410,01:07,10,0,2023-08-26 17:24:38.7440,1693088678.7439752,-0.020428841933608055,-0.01005183532834053,-0.0034437335561960936,-0.0079345703125,0.361724853515625,-0.934417724609375,117.5736083984375,11.92547607421875,-53.55657958984375,,,,,,,,,,
0,2023-08-26 17:24:32.7410,01:07,10,0,2023-08-26 17:24:38.8440,1693088678.843816,0.04464736208319664,-0.03323332220315933,0.013712882995605469,-0.0169219970703125,0.37738037109375,-0.9381866455078125,117.33937072753906,11.527572631835938,-53.36456298828125,,,,,,,,,,
0,2023-08-26 17:24:32.7410,01:07,10,0,2023-08-26 17:24:38.9440,1693088678.944094,-0.05296254903078079,-0.016926519572734833,-0.001454884884878993,-0.00836181640625,0.357208251953125,-0.940185546875,117.29853820800781,11.412887573242188,-53.48713684082031,,,,,,,,,,
0,2023-08-26 17:24:32.7410,01:07,10,0,2023-08-26 17:24:39.0440,1693088679.044028,0.013216735795140266,-0.04577814042568207,-0.00708667142316699,-0.0128326416015625,0.38555908203125,-0.9405975341796875,116.89004516601562,11.72705078125,-53.22023010253906,,,,,,,,,,
0,2023-08-26 17:24:32.7410,01:07,10,0,2023-08-26 17:24:39.1440,1693088679.143783,0.11791092157363892,-0.12523621320724487,0.013646570034325123,-0.0022125244140625,0.3610382080078125,-0.948028564453125,116.32220458984375,11.334793090820312,-53.328033447265625,,,,,,,,,,
0,2023-08-26 17:24:32.7410,01:07,10,0,2023-08-26 17:24:39.2440,1693088679.244076,-0.04007790982723236,-0.1617811769247055,-0.02448536828160286,-0.0128936767578125,0.363861083984375,-0.9434051513671875,115.33303833007812,11.762588500976562,-53.66835021972656,,,,,,,,,,
0,2023-08-26 17:24:32.7410,01:07,10,0,2023-08-26 17:24:39.3440,1693088679.344012,0.13333141803741455,-0.21196764707565308,-0.12159007787704468,-0.0407562255859375,0.36956787109375,-0.939666748046875,114.20341491699219,11.627288818359375,-53.9354248046875,,,,,,,,,,
0,2023-08-26 17:24:32.7410,01:07,10,0,2023-08-26 17:24:39.4440,1693088679.44397,-0.019649067893624306,-0.3092358708381653,-0.21973289549350739,-0.0363922119140625,0.3311767578125,-0.955108642578125,112.30632019042969,12.093109130859375,-54.26385498046875,,,,,,,,,,
0,2023-08-26 17:24:32.7410,01:07,10,0,2023-08-26 17:24:39.5440,1693088679.5441499,-0.29474082589149475,-0.5019632577896118,-0.29469501972198486,-0.1060638427734375,0.3629150390625,-0.9394683837890625,109.08018493652344,14.05419921875,-54.410308837890625,,,,,,,,,,
0,2023-08-26 17:24:32.7410,01:07,10,0,2023-08-26 17:24:39.6440,1693088679.643742,-0.10870064795017242,-0.7687326073646545,-0.3509036898612976,-0.1475372314453125,0.3704071044921875,-0.9192657470703125,104.37217712402344,14.95623779296875,-54.754669189453125,,,,,,,,,,
0,2023-08-26 17:24:32.7410,01:07,10,0,2023-08-26 17:24:39.7440,1693088679.743774,-0.1200270727276802,-0.8560579419136047,-0.4255952537059784,-0.3103179931640625,0.3662872314453125,-0.8382568359375,98.74162292480469,16.610366821289062,-54.0919189453125,,,,,,,,,,
0,2023-08-26 17:24:32.7410,01:07,10,0,2023-08-26 17:24:39.8440,1693088679.844146,-0.17933912575244904,-0.7605181336402893,-0.8548752069473267,-0.3507232666015625,0.28045654296875,-0.8624420166015625,92.48719787597656,17.305923461914062,-52.831878662109375,,,,,,,,,,
0,2023-08-26 17:24:32.7410,01:07,10,0,2023-08-26 17:24:39.9440,1693088679.943966,-0.12372087687253952,-0.5745168328285217,-0.8666597008705139,-0.4625244140625,0.373504638671875,-0.8149261474609375,87.15235900878906,17.766998291015625,-51.8466796875,,,,,,,,,,
0,2023-08-26 17:24:32.7410,01:07,10,0,2023-08-26 17:24:40.0440,1693088680.044149,0.1863192766904831,-0.478269100189209,-0.8673364520072937,-0.5149078369140625,0.3340606689453125,-0.7908172607421875,82.84564208984375,15.781631469726562,-50.8111572265625,,,,,,,,,,
0,2023-08-26 17:24:32.7410,01:07,10,0,2023-08-26 17:24:40.1450,1693088680.145026,0.03941424936056137,-0.40476879477500916,-0.773688793182373,-0.558441162109375,0.3046722412109375,-0.791656494140625,79.71162414550781,14.361602783203125,-48.44207763671875,,,,,,,,,,
0,2023-08-26 17:24:32.7410,01:07,10,0,2023-08-26 17:24:40.2440,1693088680.244051,0.27052974700927734,-0.4980012774467468,-0.6761118769645691,-0.5950164794921875,0.152862548828125,-0.7339935302734375,75.29827880859375,11.44830322265625,-48.31687927246094,,,,,,,,,,
0,2023-08-26 17:24:32.7410,01:07,10,0,2023-08-26 17:24:40.3440,1693088680.344201,0.1431984305381775,-0.44363388419151306,-0.7217864394187927,-0.69940185546875,0.13922119140625,-0.72625732421875,72.23585510253906,9.089752197265625,-46.82945251464844,,,,,,,,,,
0,2023-08-26 17:24:32.7410,01:07,10,0,2023-08-26 17:24:40.4440,1693088680.44386,0.22338728606700897,-0.278323769569397,-0.8068355321884155,-0.683837890625,0.05511474609375,-0.645355224609375,69.88119506835938,5.4271240234375,-45.85139465332031,,,,,,,,,,
0,2023-08-26 17:24:32.7410,01:07,10,0,2023-08-26 17:24:40.5440,1693088680.543672,0.1311178058385849,-0.25675615668296814,-0.8025656938552856,-0.72991943359375,-0.0006103515625,-0.6488494873046875,68.19400024414062,2.4481353759765625,-44.96836853027344,,,,,,,,,,
0,2023-08-26 17:24:32.7410,01:07,10,0,2023-08-26 17:24:40.6450,1693088680.644686,0.2039073258638382,-0.24549897015094757,-0.5999143123626709,-0.7310333251953125,-0.0382080078125,-0.631072998046875,67.19636535644531,-0.5821380615234375,-43.701934814453125,,,,,,,,,,
0,2023-08-26 17:24:32.7410,01:07,10,0,2023-08-26 17:24:40.7440,1693088680.743979,0.2865132689476013,-0.16721801459789276,-0.5907335877418518,-0.69073486328125,-0.1461639404296875,-0.62542724609375,66.37283325195312,-4.02490234375,-42.67863464355469,,,,,,,,,,
0,2023-08-26 17:24:32.7410,01:07,10,0,2023-08-26 17:24:40.8440,1693088680.844192,0.1852516084909439,-0.13770540058612823,-0.631885826587677,-0.801971435546875,-0.2479705810546875,-0.623992919921875,66.1658935546875,-6.5989837646484375,-41.633392333984375,,,,,,,,,,
0,2023-08-26 17:24:32.7410,01:07,10,0,2023-08-26 17:24:40.9440,1693088680.943771,-0.0008317052270285785,-0.09614703804254532,-0.5446036458015442,-0.767120361328125,-0.214813232421875,-0.606109619140625,66.08024597167969,-8.529083251953125,-40.84349060058594,,,,,,,,,,
0,2023-08-26 17:24:32.7410,01:07,10,0,2023-08-26 17:24:41.0430,1693088681.043141,-0.06689301133155823,-0.19044318795204163,-0.4929859936237335,-0.747711181640625,-0.2261199951171875,-0.5905914306640625,65.55813598632812,-10.826904296875,-39.93049621582031,,,,,,,,,,
0,2023-08-26 17:24:32.7410,01:07,10,0,2023-08-26 17:24:41.1440,1693088681.144119,0.34552279114723206,-0.09634064882993698,-0.3946535587310791,-0.71588134765625,-0.2337188720703125,-0.577667236328125,66.01181030273438,-13.400909423828125,-39.193817138671875,,,,,,,,,,
0,2023-08-26 17:24:32.7410,01:07,10,0,2023-08-26 17:24:41.2440,1693088681.244178,-0.04073464497923851,-0.006082393694669008,-0.2617948651313782,-0.702789306640625,-0.4049072265625,-0.595489501953125,66.28569030761719,-14.262115478515625,-38.53962707519531,,,,,,,,,,
0,2023-08-26 17:24:32.7410,01:07,10,0,2023-08-26 17:24:41.3440,1693088681.3441172,-0.017233582213521004,0.08064185082912445,-0.08524245768785477,-0.7600250244140625,-0.3800811767578125,-0.554962158203125,66.39445495605469,-14.536270141601562,-38.944091796875,,,,,,,,,,
0,2023-08-26 17:24:32.7410,01:07,10,0,2023-08-26 17:24:41.4440,1693088681.444176,-0.09173471480607986,-0.020842697471380234,0.014675615355372429,-0.7230682373046875,-0.3148040771484375,-0.570220947265625,66.44749450683594,-14.693527221679688,-39.059417724609375,,,,,,,,,,
0,2023-08-26 17:24:32.7410,01:07,10,0,2023-08-26 17:24:41.5440,1693088681.544129,0.0030301446095108986,0.021644309163093567,0.02382783405482769,-0.7137298583984375,-0.3968353271484375,-0.554046630859375,66.44749450683594,-14.693527221679688,-39.059417724609375,,,,,,,,,,
0,2023-08-26 17:24:32.7410,01:07,10,0,2023-08-26 17:24:41.6420,1693088681.642115,-0.09362316131591797,-0.00878177396953106,0.06865523010492325,-0.6944427490234375,-0.3645782470703125,-0.5860748291015625,66.18460083007812,-14.61273193359375,-39.652740478515625,,,,,,,,,,
0,2023-08-26 17:24:32.7410,01:07,10,0,2023-08-26 17:24:41.7430,1693088681.743305,0.034092456102371216,-0.01107528805732727,0.06941130012273788,-0.733856201171875,-0.38104248046875,-0.573455810546875,66.13314819335938,-14.461288452148438,-39.189605712890625,,,,,,,,,,
0,2023-08-26 17:24:32.7410,01:07,10,0,2023-08-26 17:24:41.8430,1693088681.843265,0.07050079852342606,-0.01701946370303631,-0.1102048009634018,-0.7207794189453125,-0.3611297607421875,-0.58880615234375,66.01742553710938,-14.278472900390625,-39.285308837890625,,,,,,,,,,
0,2023-08-26 17:24:32.7410,01:07,10,0,2023-08-26 17:24:41.9440,1693088681.943946,-0.009791644290089607,0.021342307329177856,-0.008143413811922073,-0.705474853515625,-0.3952178955078125,-0.564544677734375,65.89768981933594,-14.604110717773438,-39.18492126464844,,,,,,,,,,
0,2023-08-26 17:24:32.7410,01:07,10,0,2023-08-26 17:24:42.0440,1693088682.044094,-0.06682563573122025,0.021039504557847977,0.02839835174381733,-0.7242889404296875,-0.3637847900390625,-0.57147216796875,66.04656982421875,-14.750152587890625,-39.041107177734375,,,,,,,,,,
0,2023-08-26 17:24:32.7410,01:07,10,0,2023-08-26 17:24:42.1430,1693088682.1434522,-0.04998433589935303,0.02305684983730316,-0.042398057878017426,-0.698638916015625,-0.3794403076171875,-0.580413818359375,66.19473266601562,-14.522872924804688,-38.91453552246094,,,,,,,,,,
0,2023-08-26 17:24:32.7410,01:07,10,0,2023-08-26 17:24:42.2440,1693088682.2440228,-0.03079839237034321,-0.007218764163553715,-0.013644439168274403,-0.705291748046875,-0.3917694091796875,-0.6011199951171875,66.3116455078125,-14.323150634765625,-39.164031982421875,,,,,,,,,,
0,2023-08-26 17:24:32.7410,01:07,10,0,2023-08-26 17:24:42.3440,1693088682.3440819,-0.069683738052845,-0.004709800239652395,0.0643204003572464,-0.7107696533203125,-0.3796234130859375,-0.576446533203125,66.37118530273438,-14.723922729492188,-39.4534912109375,,,,,,,,,,
0,2023-08-26 17:24:32.7410,01:07,10,0,2023-08-26 17:24:42.4420,1693088682.4421902,-0.0816570445895195,0.0012258529895916581,-0.036743633449077606,-0.68499755859375,-0.377532958984375,-0.5959014892578125,66.32269287109375,-14.757888793945312,-39.232269287109375,,,,,,,,,,
0,2023-08-26 17:24:32.7410,01:07,10,0,2023-08-26 17:24:42.5430,1693088682.542588,0.18019932508468628,0.0034972631838172674,-0.05655275657773018,-0.6975555419921875,-0.38385009765625,-0.5793914794921875,66.57601928710938,-14.357025146484375,-39.602203369140625,,,,,,,,,,
0,2023-08-26 17:24:32.7410,01:07,10,0,2023-08-26 17:24:42.6430,1693088682.6434932,-0.08947315812110901,-0.007330616936087608,0.04495256021618843,-0.7299041748046875,-0.4095611572265625,-0.5868072509765625,66.38838195800781,-15.136978149414062,-39.4639892578125,,,,,,,,,,
0,2023-08-26 17:24:32.7410,01:07,10,0,2023-08-26 17:24:42.7440,1693088682.744357,-0.057316817343235016,-0.012514726258814335,0.012328305281698704,-0.713043212890625,-0.375762939453125,-0.594512939453125,66.26185607910156,-14.929824829101562,-39.62364196777344,,,,,,,,,,
0,2023-08-26 17:24:32.7410,01:07,10,0,2023-08-26 17:24:42.8440,1693088682.84361,0.02430693805217743,-0.010010289959609509,-0.041978076100349426,-0.713165283203125,-0.3902435302734375,-0.5779571533203125,66.34255981445312,-15.03033447265625,-39.53080749511719,,,,,,,,,,
0,2023-08-26 17:24:32.7410,01:07,10,0,2023-08-26 17:24:42.9440,1693088682.9439769,0.026977289468050003,-0.019534286111593246,-0.013080381788313389,-0.7163848876953125,-0.3872833251953125,-0.5945587158203125,66.46379089355469,-15.076919555664062,-38.94694519042969,,,,,,,,,,
0,2023-08-26 17:24:32.7410,01:07,10,0,2023-08-26 17:24:43.0440,1693088683.043748,-0.03027002140879631,-0.01641838811337948,-0.031128624454140663,-0.7113800048828125,-0.366607666015625,-0.548065185546875,66.373291015625,-15.261886596679688,-38.879486083984375,,,,,,,,,,
0,2023-08-26 17:24:32.7410,01:07,10,0,2023-08-26 17:24:43.1420,1693088683.142222,0.032760877162218094,0.0026027073618024588,-0.09821151942014694,-0.70770263671875,-0.4057159423828125,-0.564239501953125,66.39814758300781,-15.259002685546875,-38.81394958496094,,,,,,,,,,
0,2023-08-26 17:24:32.7410,01:07,10,0,2023-08-26 17:24:43.2450,1693088683.2448359,0.044248420745134354,-0.005532184615731239,0.0006261091912165284,-0.693878173828125,-0.4142303466796875,-0.5716552734375,66.49995422363281,-15.797744750976562,-38.67781066894531,,,,,,,,,,
0,2023-08-26 17:24:32.7410,01:07,10,0,2023-08-26 17:24:43.3440,1693088683.344374,-0.027693679556250572,0.019296731799840927,-0.01299223117530346,-0.672943115234375,-0.3852691650390625,-0.56500244140625,66.61172485351562,-15.57440185546875,-38.684814453125,,,,,,,,,,
0,2023-08-26 17:24:32.7410,01:07,10,0,2023-08-26 17:24:43.4440,1693088683.444325,0.01732679270207882,-0.012076903134584427,-0.006602775305509567,-0.719512939453125,-0.418670654296875,-0.5757904052734375,66.55410766601562,-15.64990234375,-38.9349365234375,,,,,,,,,,
0,2023-08-26 17:24:32.7410,01:07,10,0,2023-08-26 17:24:43.5440,1693088683.543594,0.05054706335067749,-0.013907826505601406,-0.003085005795583129,-0.717193603515625,-0.3965301513671875,-0.560943603515625,66.58877563476562,-15.69146728515625,-38.722137451171875,,,,,,,,,,
0,2023-08-26 17:24:32.7410,01:07,10,0,2023-08-26 17:24:43.6440,1693088683.643852,0.028560804203152657,0.018506040796637535,-0.013006346300244331,-0.7197265625,-0.4205474853515625,-0.5667266845703125,66.42922973632812,-15.767333984375,-39.04847717285156,,,,,,,,,,
0,2023-08-26 17:24:32.7410,01:07,10,0,2023-08-26 17:24:43.7420,1693088683.742145,0.010625213384628296,0.026933878660202026,0.03057948127388954,-0.707489013671875,-0.4196929931640625,-0.5880889892578125,66.41819763183594,-15.450241088867188,-39.05242919921875,,,,,,,,,,
0,2023-08-26 17:24:32.7410,01:07,10,0,2023-08-26 17:24:43.8420,1693088683.8423572,0.07026564329862595,-0.011518171988427639,0.006885070353746414,-0.7088165283203125,-0.395721435546875,-0.57586669921875,66.48170471191406,-15.379409790039062,-38.995147705078125,,,,,,,,,,
0,2023-08-26 17:24:32.7410,01:07,10,0,2023-08-26 17:24:43.9440,1693088683.944176,0.038304246962070465,-0.01004943810403347,-0.03670022264122963,-0.7166595458984375,-0.4051361083984375,-0.5770111083984375,66.42613220214844,-15.4815673828125,-38.71290588378906,,,,,,,,,,
0,2023-08-26 17:24:32.7410,01:07,10,0,2023-08-26 17:24:44.0420,1693088684.042382,0.07418394833803177,0.014066018164157867,-0.051714327186346054,-0.697418212890625,-0.423431396484375,-0.5613250732421875,66.42866516113281,-15.596084594726562,-39.095550537109375,,,,,,,,,,
0,2023-08-26 17:24:32.7410,01:07,10,0,2023-08-26 17:24:44.1440,1693088684.14418,0.03690288960933685,0.006423544604331255,0.011767443269491196,-0.700714111328125,-0.401092529296875,-0.5738525390625,66.36502075195312,-15.309951782226562,-39.29725646972656,,,,,,,,,,
0,2023-08-26 17:24:32.7410,01:07,10,0,2023-08-26 17:24:44.2440,1693088684.243896,-0.04807964339852333,-0.01158794667571783,0.0025598304346203804,-0.715667724609375,-0.39117431640625,-0.572998046875,66.39262390136719,-15.752578735351562,-39.01786804199219,,,,,,,,,,
0,2023-08-26 17:24:32.7410,01:07,10,0,2023-08-26 17:24:44.3440,1693088684.3437052,0.006732737645506859,0.028500882908701897,-0.03713405132293701,-0.706390380859375,-0.41387939453125,-0.550140380859375,66.50035095214844,-15.624053955078125,-39.081146240234375,,,,,,,,,,
0,2023-08-26 17:24:32.7410,01:07,10,0,2023-08-26 17:24:44.4440,1693088684.444179,0.035180624574422836,0.019874637946486473,0.00529596209526062,-0.7049407958984375,-0.401397705078125,-0.573577880859375,66.40571594238281,-15.610977172851562,-38.97273254394531,,,,,,,,,,
0,2023-08-26 17:24:32.7410,01:07,10,0,2023-08-26 17:24:44.5420,1693088684.541943,0.002168345730751753,0.04155756160616875,-0.018410699442029,-0.6919708251953125,-0.4105682373046875,-0.569732666015625,66.36805725097656,-15.750396728515625,-39.2054443359375,,,,,,,,,,
0,2023-08-26 17:24:32.7410,01:07,10,0,2023-08-26 17:24:44.6440,1693088684.643976,-0.0744585245847702,0.00020213393145240843,0.04641197249293327,-0.714263916015625,-0.3763275146484375,-0.6042022705078125,66.71531677246094,-15.750152587890625,-39.24974060058594,,,,,,,,,,
0,2023-08-26 17:24:32.7410,01:07,10,0,2023-08-26 17:24:44.7440,1693088684.7435598,-0.05955706909298897,0.024175643920898438,0.005185174755752087,-0.69427490234375,-0.3978118896484375,-0.5708465576171875,66.67074584960938,-15.600601196289062,-39.51969909667969,,,,,,,,,,
0,2023-08-26 17:24:32.7410,01:07,10,0,2023-08-26 17:24:44.8440,1693088684.8444638,0.008902947418391705,-0.0046823699958622456,0.004742024466395378,-0.7060394287109375,-0.3967437744140625,-0.592132568359375,66.78352355957031,-15.705169677734375,-39.49969482421875,,,,,,,,,,
0,2023-08-26 17:24:32.7410,01:07,10,0,2023-08-26 17:24:44.9440,1693088684.943825,0.0788697823882103,-0.002921487670391798,-0.07258525490760803,-0.699462890625,-0.4263763427734375,-0.590911865234375,66.91970825195312,-15.083358764648438,-39.602203369140625,,,,,,,,,,
0,2023-08-26 17:24:32.7410,01:07,10,0,2023-08-26 17:24:45.0440,1693088685.044153,0.046777091920375824,0.01589321345090866,0.019724436104297638,-0.7208404541015625,-0.439727783203125,-0.5782928466796875,66.85720825195312,-15.658706665039062,-39.27116394042969,,,,,,,,,,
0,2023-08-26 17:24:32.7410,01:07,10,0,2023-08-26 17:24:45.1440,1693088685.1436238,-0.044986117631196976,-0.0007107976707629859,0.03624482452869415,-0.7171783447265625,-0.398773193359375,-0.5864105224609375,67.0274658203125,-15.579757690429688,-39.13587951660156,,,,,,,,,,
0,2023-08-26 17:24:32.7410,01:07,10,0,2023-08-26 17:24:45.2440,1693088685.243682,0.019172895699739456,0.012208462692797184,-0.027000458911061287,-0.687164306640625,-0.4040679931640625,-0.5792236328125,67.05442810058594,-15.758865356445312,-39.3631591796875,,,,,,,,,,
0,2023-08-26 17:24:32.7410,01:07,10,0,2023-08-26 17:24:45.3440,1693088685.3437319,-0.004205930046737194,0.01695980876684189,0.03947284072637558,-0.699462890625,-0.413665771484375,-0.5742340087890625,67.17225646972656,-15.363128662109375,-39.219757080078125,,,,,,,,,,
0,2023-08-26 17:24:32.7410,01:07,10,0,2023-08-26 17:24:45.4440,1693088685.443721,0.0049825082533061504,0.025254223495721817,-0.011038802564144135,-0.693572998046875,-0.39794921875,-0.5816802978515625,67.10769653320312,-15.21466064453125,-39.6361083984375,,,,,,,,,,
0,2023-08-26 17:24:32.7410,01:07,10,0,2023-08-26 17:24:45.5440,1693088685.543823,-0.01432541012763977,-0.002290052128955722,0.03978895768523216,-0.7079010009765625,-0.4039764404296875,-0.593994140625,67.11231994628906,-15.214645385742188,-39.577423095703125,,,,,,,,,,
0,2023-08-26 17:24:32.7410,01:07,10,0,2023-08-26 17:24:45.6440,1693088685.6438742,0.054314371198415756,-0.020173978060483932,-0.033971283584833145,-0.6979827880859375,-0.426513671875,-0.5829925537109375,67.16574096679688,-15.367828369140625,-39.44261169433594,,,,,,,,,,
0,2023-08-26 17:24:32.7410,01:07,10,0,2023-08-26 17:24:45.7440,1693088685.743629,0.022962840273976326,-0.015036207623779774,-0.06430575251579285,-0.7021484375,-0.39453125,-0.5856170654296875,67.07363891601562,-15.377120971679688,-39.61146545410156,,,,,,,,,,
0,2023-08-26 17:24:32.7410,01:07,10,0,2023-08-26 17:24:45.8430,1693088685.843112,-0.0007470166892744601,0.0016695356462150812,0.03550020232796669,-0.703521728515625,-0.4403839111328125,-0.5795135498046875,66.98837280273438,-15.657028198242188,-39.543914794921875,,,,,,,,,,
0,2023-08-26 17:24:32.7410,01:07,10,0,2023-08-26 17:24:45.9440,1693088685.943505,-0.09514329582452774,0.007132744416594505,0.036806751042604446,-0.6839447021484375,-0.3900604248046875,-0.596588134765625,66.91290283203125,-15.245208740234375,-39.38789367675781,,,,,,,,,,
0,2023-08-26 17:24:32.7410,01:07,10,0,2023-08-26 17:24:46.0440,1693088686.043834,-0.06148466467857361,0.021043766289949417,0.024656344205141068,-0.7058258056640625,-0.3964385986328125,-0.5865936279296875,67.1170654296875,-15.428436279296875,-39.54786682128906,,,,,,,,,,
0,2023-08-26 17:24:32.7410,01:07,10,0,2023-08-26 17:24:46.1440,1693088686.14356,0.00333267985843122,0.025046231225132942,-0.017316406592726707,-0.68780517578125,-0.414215087890625,-0.5898590087890625,67.27862548828125,-15.175827026367188,-39.571990966796875,,,,,,,,,,
0,2023-08-26 17:24:32.7410,01:07,10,0,2023-08-26 17:24:46.2430,1693088686.243474,-0.0036333505995571613,-0.0010721886064857244,0.055501874536275864,-0.68951416015625,-0.394989013671875,-0.6112213134765625,67.50424194335938,-15.5003662109375,-39.78584289550781,,,,,,,,,,
0,2023-08-26 17:24:32.7410,01:07,10,0,2023-08-26 17:24:46.3430,1693088686.343453,-0.06701738387346268,-0.008757006376981735,0.007225688546895981,-0.7003173828125,-0.38897705078125,-0.5858306884765625,67.45553588867188,-15.550460815429688,-39.687286376953125,,,,,,,,,,
0,2023-08-26 17:24:32.7410,01:07,10,0,2023-08-26 17:24:46.4440,1693088686.443871,0.02250770665705204,0.004501008428633213,-0.024803882464766502,-0.700439453125,-0.40716552734375,-0.5865631103515625,67.50308227539062,-15.18463134765625,-39.61248779296875,,,,,,,,,,
0,2023-08-26 17:24:32.7410,01:07,10,0,2023-08-26 17:24:46.5440,1693088686.544142,-0.03977670893073082,-0.008825715631246567,0.0014386395923793316,-0.70135498046875,-0.382843017578125,-0.6056365966796875,67.66012573242188,-15.384033203125,-39.65116882324219,,,,,,,,,,
0,2023-08-26 17:24:32.7410,01:07,10,0,2023-08-26 17:24:46.6440,1693088686.643548,-0.049021072685718536,-0.013555755838751793,0.005048820748925209,-0.69317626953125,-0.3739166259765625,-0.58245849609375,67.52206420898438,-15.212234497070312,-39.47966003417969,,,,,,,,,,
0,2023-08-26 17:24:32.7410,01:07,10,0,2023-08-26 17:24:46.7440,1693088686.743721,0.024203605949878693,0.019179286435246468,-0.05619988963007927,-0.690399169921875,-0.414825439453125,-0.581695556640625,67.61245727539062,-15.28875732421875,-39.28150939941406,,,,,,,,,,
0,2023-08-26 17:24:32.7410,01:07,10,0,2023-08-26 17:24:46.8430,1693088686.84339,-0.025770610198378563,-0.0068358019925653934,0.0541045144200325,-0.706085205078125,-0.3611297607421875,-0.607025146484375,67.73863220214844,-15.372421264648438,-39.81550598144531,,,,,,,,,,
0,2023-08-26 17:24:32.7410,01:07,10,0,2023-08-26 17:24:46.9440,1693088686.943521,-0.05260062590241432,0.006703442893922329,-0.009662481024861336,-0.7063446044921875,-0.3842315673828125,-0.57562255859375,67.56829833984375,-15.299453735351562,-39.721710205078125,,,,,,,,,,
0,2023-08-26 17:24:32.7410,01:07,10,0,2023-08-26 17:24:47.0440,1693088687.04385,0.04285159334540367,-0.004218447022140026,-0.018036257475614548,-0.6985321044921875,-0.4105377197265625,-0.6128997802734375,67.69833374023438,-15.125946044921875,-39.633087158203125,,,,,,,,,,
0,2023-08-26 17:24:32.7410,01:07,10,0,2023-08-26 17:24:47.1420,1693088687.142428,-0.0464540496468544,-0.0017963021527975798,0.03315981850028038,-0.6856689453125,-0.4133453369140625,-0.604400634765625,67.69206237792969,-15.456466674804688,-39.50004577636719,,,,,,,,,,
0,2023-08-26 17:24:32.7410,01:07,10,0,2023-08-26 17:24:47.2450,1693088687.244522,-0.016117185354232788,-0.0028855351265519857,-0.029650837182998657,-0.6833953857421875,-0.3967742919921875,-0.601165771484375,67.63433837890625,-15.474853515625,-39.820892333984375,,,,,,,,,,
0,2023-08-26 17:24:32.7410,01:07,10,0,2023-08-26 17:24:47.3450,1693088687.344516,0.07286888360977173,0.004328435752540827,-0.04716964438557625,-0.6818695068359375,-0.4137115478515625,-0.587249755859375,67.75157165527344,-15.076278686523438,-39.71492004394531,,,,,,,,,,
0,2023-08-26 17:24:32.7410,01:07,10,0,2023-08-26 17:24:47.4440,1693088687.44374,-0.011057178489863873,0.01260980125516653,0.019713517278432846,-0.709197998046875,-0.4097442626953125,-0.6054534912109375,67.68893432617188,-15.052520751953125,-39.78631591796875,,,,,,,,,,
0,2023-08-26 17:24:32.7410,01:07,10,0,2023-08-26 17:24:47.5430,1693088687.5434098,-0.011938950978219509,-0.0035457327030599117,0.007532751187682152,-0.69256591796875,-0.3772735595703125,-0.593414306640625,67.87261962890625,-15.048660278320312,-39.69715881347656,,,,,,,,,,
0,2023-08-26 17:24:32.7410,01:07,10,0,2023-08-26 17:24:47.6430,1693088687.643395,0.011961054988205433,0.005377987399697304,-0.03013979271054268,-0.7000274658203125,-0.407806396484375,-0.5914764404296875,67.87321472167969,-15.052764892578125,-39.30999755859375,,,,,,,,,,
0,2023-08-26 17:24:32.7410,01:07,10,0,2023-08-26 17:24:47.7440,1693088687.7435641,-0.007167898118495941,-0.012557337060570717,0.013791978359222412,-0.6929779052734375,-0.388916015625,-0.6039276123046875,67.89109802246094,-14.92816162109375,-39.683380126953125,,,,,,,,,,
0,2023-08-26 17:24:32.7410,01:07,10,0,2023-08-26 17:24:47.8440,1693088687.843594,-0.0723695382475853,0.017726266756653786,-0.04144943878054619,-0.6668243408203125,-0.388458251953125,-0.594329833984375,68.27096557617188,-14.971389770507812,-39.756866455078125,,,,,,,,,,
0,2023-08-26 17:24:32.7410,01:07,10,0,2023-08-26 17:24:47.9440,1693088687.943605,0.027394605800509453,0.006967628374695778,0.0028876655269414186,-0.68463134765625,-0.405975341796875,-0.606201171875,68.13331604003906,-14.711471557617188,-39.354522705078125,,,,,,,,,,
0,2023-08-26 17:24:32.7410,01:07,10,0,2023-08-26 17:24:48.0450,1693088688.04457,-0.06943207234144211,0.0025300029665231705,0.05299131199717522,-0.691802978515625,-0.379425048828125,-0.600555419921875,68.05876159667969,-14.5284423828125,-39.60820007324219,,,,,,,,,,
0,2023-08-26 17:24:32.7410,01:07,10,0,2023-08-26 17:24:48.1430,1693088688.143367,-0.044851891696453094,-0.02009008824825287,0.008325573988258839,-0.688446044921875,-0.3504638671875,-0.6165618896484375,68.24827575683594,-14.626785278320312,-39.70314025878906,,,,,,,,,,
0,2023-08-26 17:24:32.7410,01:07,10,0,2023-08-26 17:24:48.2440,1693088688.2435188,0.029024461284279823,-0.014735270291566849,-0.07056710869073868,-0.6915435791015625,-0.384368896484375,-0.6049346923828125,68.13575744628906,-14.688217163085938,-39.86090087890625,,,,,,,,,,
0,2023-08-26 17:24:32.7410,01:07,10,0,2023-08-26 17:24:48.3440,1693088688.34372,0.08271298557519913,0.002817890839651227,-0.062372032552957535,-0.698211669921875,-0.416748046875,-0.5786895751953125,68.12193298339844,-14.648712158203125,-39.74430847167969,,,,,,,,,,
0,2023-08-26 17:24:32.7410,01:07,10,0,2023-08-26 17:24:48.4440,1693088688.443633,0.08535484224557877,0.011958925053477287,-0.015049522742629051,-0.679443359375,-0.4261016845703125,-0.603729248046875,68.05061340332031,-14.7198486328125,-39.586212158203125,,,,,,,,,,
0,2023-08-26 17:24:32.7410,01:07,10,0,2023-08-26 17:24:48.5440,1693088688.54356,-0.013495302759110928,-0.009862218052148819,0.06178480386734009,-0.6766204833984375,-0.39923095703125,-0.61907958984375,68.18217468261719,-14.858184814453125,-39.72735595703125,,,,,,,,,,
0,2023-08-26 17:24:32.7410,01:07,10,0,2023-08-26 17:24:48.6430,1693088688.64347,-0.023609189316630363,-0.016328107565641403,-0.012062788009643555,-0.6838836669921875,-0.3809051513671875,-0.601531982421875,67.97235107421875,-14.801177978515625,-39.7432861328125,,,,,,,,,,
0,2023-08-26 17:24:32.7410,01:07,10,0,2023-08-26 17:24:48.7420,1693088688.742044,0.06585092097520828,0.0030429279431700706,-0.03701500967144966,-0.6864166259765625,-0.4210052490234375,-0.5839385986328125,67.95875549316406,-14.719390869140625,-39.73822021484375,,,,,,,,,,
0,2023-08-26 17:24:32.7410,01:07,10,0,2023-08-26 17:24:48.8440,1693088688.843636,0.10674615204334259,0.014689197763800621,-0.02466326765716076,-0.68096923828125,-0.4304046630859375,-0.584228515625,68.06303405761719,-14.796905517578125,-39.826446533203125,,,,,,,,,,
0,2023-08-26 17:24:32.7410,01:07,10,0,2023-08-26 17:24:48.9440,1693088688.943903,0.052990514785051346,0.01563621684908867,0.005824599415063858,-0.67828369140625,-0.4135284423828125,-0.598876953125,67.71525573730469,-14.9100341796875,-39.81121826171875,,,,,,,,,,
0,2023-08-26 17:24:32.7410,01:07,10,0,2023-08-26 17:24:49.0430,1693088689.043295,-0.043783966451883316,0.005044027231633663,0.06582455337047577,-0.6844635009765625,-0.40533447265625,-0.6100006103515625,67.97366333007812,-14.98687744140625,-39.947174072265625,,,,,,,,,,
0,2023-08-26 17:24:32.7410,01:07,10,0,2023-08-26 17:24:49.1440,1693088689.143738,-0.02978452667593956,-0.020775053650140762,0.030237264931201935,-0.678375244140625,-0.3991546630859375,-0.5944671630859375,67.73709106445312,-15.00457763671875,-39.79148864746094,,,,,,,,,,
0,2023-08-26 17:24:32.7410,01:07,10,0,2023-08-26 17:24:49.2430,1693088689.243401,0.06738489866256714,0.0035923379473388195,-0.06264926493167877,-0.684478759765625,-0.4033355712890625,-0.5815582275390625,67.78074645996094,-14.9754638671875,-39.74446105957031,,,,,,,,,,
0,2023-08-26 17:24:32.7410,01:07,10,0,2023-08-26 17:24:49.3430,1693088689.343313,0.06976017355918884,0.01750495843589306,-0.029062544927001,-0.6947479248046875,-0.4381561279296875,-0.586334228515625,67.90957641601562,-15.158065795898438,-39.74995422363281,,,,,,,,,,
0,2023-08-26 17:24:32.7410,01:07,10,0,2023-08-26 17:24:49.4440,1693088689.443604,0.0015542207984253764,0.010409497655928135,0.021269869059324265,-0.693328857421875,-0.42218017578125,-0.5849151611328125,67.94248962402344,-15.020004272460938,-39.48869323730469,,,,,,,,,,
0,2023-08-26 17:24:32.7410,01:07,10,0,2023-08-26 17:24:49.5430,1693088689.543325,-0.020498882979154587,-0.007505853194743395,0.017364343628287315,-0.6895751953125,-0.386505126953125,-0.5964202880859375,68.04379272460938,-15.221786499023438,-39.62120056152344,,,,,,,,,,
0,2023-08-26 17:24:32.7410,01:07,10,0,2023-08-26 17:24:49.6440,1693088689.643569,0.008582036942243576,-0.006992395501583815,-0.05307094007730484,-0.6837615966796875,-0.394378662109375,-0.573028564453125,67.82237243652344,-14.904403686523438,-39.33702087402344,,,,,,,,,,
0,2023-08-26 17:24:32.7410,01:07,10,0,2023-08-26 17:24:49.7440,1693088689.743527,0.01299436204135418,0.00032916670897975564,0.0033329459838569164,-0.685638427734375,-0.41064453125,-0.5968780517578125,68.01322937011719,-15.116729736328125,-39.39891052246094,,,,,,,,,,
0,2023-08-26 17:24:32.7410,01:07,10,0,2023-08-26 17:24:49.8430,1693088689.8434029,-0.02081473357975483,-0.03104260377585888,0.006512227933853865,-0.6721954345703125,-0.3789520263671875,-0.5978851318359375,67.98092651367188,-14.918838500976562,-39.30711364746094,,,,,,,,,,
0,2023-08-26 17:24:32.7410,01:07,10,0,2023-08-26 17:24:49.9440,1693088689.94354,0.009170329198241234,0.008636897429823875,-0.036493297666311264,-0.6890869140625,-0.424652099609375,-0.5826263427734375,68.04513549804688,-15.180557250976562,-39.22979736328125,,,,,,,,,,
0,2023-08-26 17:24:32.7410,01:07,10,0,2023-08-26 17:24:50.0430,1693088690.0433822,-0.10090877115726471,-0.017959559336304665,0.06374409049749374,-0.700042724609375,-0.390716552734375,-0.604461669921875,67.9962158203125,-15.063385009765625,-39.266387939453125,,,,,,,,,,
0,2023-08-26 17:24:32.7410,01:07,10,0,2023-08-26 17:24:50.1440,1693088690.143595,-0.01170139666646719,-0.004165183752775192,-0.02263473905622959,-0.68609619140625,-0.4096527099609375,-0.5876312255859375,67.8900146484375,-14.931381225585938,-39.500274658203125,,,,,,,,,,
0,2023-08-26 17:24:32.7410,01:07,10,0,2023-08-26 17:24:50.2440,1693088690.243661,0.052204348146915436,-0.011743474751710892,0.004957207944244146,-0.702484130859375,-0.42022705078125,-0.5989837646484375,67.78443908691406,-15.291534423828125,-39.38539123535156,,,,,,,,,,
0,2023-08-26 17:24:32.7410,01:07,10,0,2023-08-26 17:24:50.3430,1693088690.343013,0.053698115050792694,-0.010726680047810078,-0.04242175817489624,-0.6925048828125,-0.4107666015625,-0.58404541015625,67.79718017578125,-15.251174926757812,-39.441192626953125,,,,,,,,,,
0,2023-08-26 17:24:32.7410,01:07,10,0,2023-08-26 17:24:50.4430,1693088690.4431171,0.05285416170954704,0.00983372237533331,-0.03182237967848778,-0.68499755859375,-0.425140380859375,-0.5803680419921875,67.79042053222656,-15.548294067382812,-39.516082763671875,,,,,,,,,,
0,2023-08-26 17:24:32.7410,01:07,10,0,2023-08-26 17:24:50.5430,1693088690.543391,0.028057733550667763,-0.016980847343802452,0.008712797425687313,-0.69189453125,-0.3881988525390625,-0.5902557373046875,67.75209045410156,-15.539291381835938,-39.29005432128906,,,,,,,,,,
0,2023-08-26 17:24:32.7410,01:07,10,0,2023-08-26 17:24:50.6440,1693088690.6435509,0.0065015750005841255,0.0009052084642462432,-0.03759478032588959,-0.6906280517578125,-0.3884735107421875,-0.5807037353515625,67.62545776367188,-15.710556030273438,-39.05218505859375,,,,,,,,,,
0,2023-08-26 17:24:32.7410,01:07,10,0,2023-08-26 17:24:50.7430,1693088690.743081,-0.07371336966753006,-0.0025800704024732113,0.030305974185466766,-0.68450927734375,-0.38201904296875,-0.5833282470703125,67.69346618652344,-15.35498046875,-39.44378662109375,,,,,,,,,,
0,2023-08-26 17:24:32.7410,01:07,10,0,2023-08-26 17:24:50.8440,1693088690.8436608,-0.0301432553678751,0.00177952426020056,-0.02845880575478077,-0.6853790283203125,-0.3996429443359375,-0.59075927734375,67.69166564941406,-15.578414916992188,-39.45320129394531,,,,,,,,,,
0,2023-08-26 17:24:32.7410,01:07,10,0,2023-08-26 17:24:50.9430,1693088690.943027,-0.028428178280591965,-0.030245520174503326,0.015782158821821213,-0.703125,-0.3922271728515625,-0.59722900390625,67.69166564941406,-15.578414916992188,-39.45320129394531,,,,,,,,,,
0,2023-08-26 17:24:32.7410,01:07,10,0,2023-08-26 17:24:51.0440,1693088691.043511,0.028081702068448067,0.007848335430026054,-0.04988420382142067,-0.6920013427734375,-0.4138946533203125,-0.5718994140625,67.69050598144531,-15.389251708984375,-39.25538635253906,,,,,,,,,,
0,2023-08-26 17:24:32.7410,01:07,10,0,2023-08-26 17:24:51.1400,1693088691.14049,-0.029338181018829346,-0.004744421225041151,0.013169597834348679,-0.6824798583984375,-0.4092254638671875,-0.587066650390625,67.67042541503906,-15.57440185546875,-39.51325988769531,,,,,,,,,,
0,2023-08-26 17:24:32.7410,01:07,10,0,2023-08-26 17:24:51.2440,1693088691.243674,0.009837184101343155,0.008506935089826584,-0.005088235717266798,-0.689544677734375,-0.4037628173828125,-0.5759735107421875,67.74024963378906,-15.642105102539062,-38.95381164550781,,,,,,,,,,
0,2023-08-26 17:24:32.7410,01:07,10,0,2023-08-26 17:24:51.3430,1693088691.343412,-0.047137416899204254,-0.004662395920604467,0.04445934295654297,-0.6819610595703125,-0.3850860595703125,-0.59649658203125,67.92218017578125,-15.883392333984375,-39.02268981933594,,,,,,,,,,
0,2023-08-26 17:24:32.7410,01:07,10,0,2023-08-26 17:24:51.4440,1693088691.443517,-0.007434480357915163,0.002145442645996809,-0.047259923070669174,-0.6854248046875,-0.4011688232421875,-0.5787506103515625,67.90425109863281,-15.646987915039062,-39.091339111328125,,,,,,,,,,
0,2023-08-26 17:24:32.7410,01:07,10,0,2023-08-26 17:24:51.5440,1693088691.543529,0.024046747013926506,-0.020084228366613388,-0.004911135416477919,-0.690582275390625,-0.40869140625,-0.5889434814453125,67.9072265625,-15.589080810546875,-39.121978759765625,,,,,,,,,,
0,2023-08-26 17:24:32.7410,01:07,10,0,2023-08-26 17:24:51.6430,1693088691.643378,0.03856496885418892,0.006902380846440792,-0.0357273705303669,-0.6932525634765625,-0.402984619140625,-0.576141357421875,68.04075622558594,-15.698013305664062,-39.071746826171875,,,,,,,,,,
0,2023-08-26 17:24:32.7410,01:07,10,0,2023-08-26 17:24:51.7440,1693088691.743547,-0.0697612389922142,-0.011678759939968586,-0.002439189236611128,-0.67327880859375,-0.3826141357421875,-0.58135986328125,67.80860900878906,-15.502334594726562,-39.10246276855469,,,,,,,,,,
0,2023-08-26 17:24:32.7410,01:07,10,0,2023-08-26 17:24:51.8430,1693088691.843153,-0.0697612389922142,-0.011678759939968586,-0.002439189236611128,-0.679779052734375,-0.41339111328125,-0.581817626953125,67.86030578613281,-15.55615234375,-38.82402038574219,,,,,,,,,,
0,2023-08-26 17:24:32.7410,01:07,10,0,2023-08-26 17:24:51.9430,1693088691.943285,-0.009002016857266426,-0.005035771057009697,-0.011186341755092144,-0.6940155029296875,-0.4249420166015625,-0.57684326171875,67.83761596679688,-15.610061645507812,-39.26104736328125,,,,,,,,,,
0,2023-08-26 17:24:32.7410,01:07,10,0,2023-08-26 17:24:52.0430,1693088692.043364,-0.004444282967597246,-0.00034194986801594496,0.008478173054754734,-0.6971588134765625,-0.415924072265625,-0.5853424072265625,67.82914733886719,-15.802597045898438,-39.296417236328125,,,,,,,,,,
0,2023-08-26 17:24:32.7410,01:07,10,0,2023-08-26 17:24:52.1430,1693088692.143199,-0.01191018894314766,0.0013337110867723823,0.009335445240139961,-0.689483642578125,-0.4142913818359375,-0.58941650390625,67.80638122558594,-15.663681030273438,-39.08128356933594,,,,,,,,,,
0,2023-08-26 17:24:32.7410,01:07,10,0,2023-08-26 17:24:52.2430,1693088692.243017,0.03244742006063461,-0.004403270315378904,-0.021563615649938583,-0.6900787353515625,-0.41436767578125,-0.5870513916015625,67.82551574707031,-15.659027099609375,-39.09393310546875,,,,,,,,,,
0,2023-08-26 17:24:32.7410,01:07,10,0,2023-08-26 17:24:52.3430,1693088692.343308,0.0089953588321805,-0.008323444053530693,-0.025773806497454643,-0.677978515625,-0.432373046875,-0.5882110595703125,67.70655822753906,-15.819320678710938,-39.09184265136719,,,,,,,,,,
0,2023-08-26 17:24:32.7410,01:07,10,0,2023-08-26 17:24:52.4430,1693088692.443337,0.052919406443834305,-0.005400890484452248,-0.02665557898581028,-0.6757659912109375,-0.4320220947265625,-0.5981903076171875,67.60111999511719,-15.717254638671875,-39.42694091796875,,,,,,,,,,
0,2023-08-26 17:24:32.7410,01:07,10,0,2023-08-26 17:24:52.5430,1693088692.543361,-0.0015337144723162055,-0.004585164599120617,0.038845665752887726,-0.6814117431640625,-0.4031219482421875,-0.5951080322265625,67.60853576660156,-15.557418823242188,-39.12251281738281,,,,,,,,,,
0,2023-08-26 17:24:32.7410,01:07,10,0,2023-08-26 17:24:52.6430,1693088692.643445,-0.005142031237483025,-0.014196512289345264,-0.006400375161319971,-0.703216552734375,-0.410186767578125,-0.5872802734375,67.96055603027344,-15.8101806640625,-39.06190490722656,,,,,,,,,,
0,2023-08-26 17:24:32.7410,01:07,10,0,2023-08-26 17:24:52.7430,1693088692.743279,-0.0037760960403829813,-0.0014682007022202015,-0.010595918633043766,-0.6970062255859375,-0.3951873779296875,-0.58929443359375,68.05023193359375,-15.495376586914062,-38.87019348144531,,,,,,,,,,
0,2023-08-26 17:24:32.7410,01:07,10,0,2023-08-26 17:24:52.8430,1693088692.8434129,-0.02576395310461521,-0.00942253042012453,0.00344559783115983,-0.6970062255859375,-0.3951873779296875,-0.58929443359375,67.92076110839844,-15.424972534179688,-39.06842041015625,,,,,,,,,,
0,2023-08-26 17:24:32.7410,01:07,10,0,2023-08-26 17:24:52.9430,1693088692.94297,0.008955411612987518,0.013975203968584538,-0.03684110566973686,-0.692535400390625,-0.4140777587890625,-0.58099365234375,67.9129638671875,-15.336456298828125,-39.2747802734375,,,,,,,,,,
0,2023-08-26 17:24:32.7410,01:07,10,0,2023-08-26 17:24:53.0430,1693088693.043313,-0.020020047202706337,-0.0185244157910347,0.013571202754974365,-0.692962646484375,-0.3946075439453125,-0.6063232421875,67.78974914550781,-15.1962890625,-38.98504638671875,,,,,,,,,,
0,2023-08-26 17:24:32.7410,01:07,10,0,2023-08-26 17:24:53.1440,1693088693.1439362,-0.010034524835646152,-0.0037971350830048323,-0.017957162111997604,-0.6882171630859375,-0.4105072021484375,-0.596923828125,67.88726806640625,-15.348129272460938,-39.21253967285156,,,,,,,,,,
0,2023-08-26 17:24:32.7410,01:07,10,0,2023-08-26 17:24:53.2430,1693088693.24316,0.02869609370827675,-0.01641812175512314,-0.02178598940372467,-0.68670654296875,-0.411041259765625,-0.59710693359375,67.85151672363281,-15.281509399414062,-39.21928405761719,,,,,,,,,,
0,2023-08-26 17:24:32.7410,01:07,10,0,2023-08-26 17:24:53.3430,1693088693.343471,-0.014079599641263485,0.0015480954898521304,-0.0006362291751429439,-0.690093994140625,-0.4257354736328125,-0.5911407470703125,67.80999755859375,-15.104995727539062,-38.9835205078125,,,,,,,,,,
0,2023-08-26 17:24:32.7410,01:07,10,0,2023-08-26 17:24:53.4430,1693088693.4427419,-0.02947799675166607,-0.004460528492927551,-0.008388690650463104,-0.68756103515625,-0.4129791259765625,-0.590484619140625,67.93203735351562,-15.013519287109375,-38.94108581542969,,,,,,,,,,
0,2023-08-26 17:24:32.7410,01:07,10,0,2023-08-26 17:24:53.5430,1693088693.543285,0.003626692807301879,0.0044378917664289474,0.01690361648797989,-0.6957244873046875,-0.414093017578125,-0.5903778076171875,67.79808044433594,-14.915115356445312,-39.236053466796875,,,,,,,,,,
0,2023-08-26 17:24:32.7410,01:07,10,0,2023-08-26 17:24:53.6430,1693088693.643194,-0.016448481008410454,-0.010759703814983368,0.011009507812559605,-0.70831298828125,-0.3875885009765625,-0.603851318359375,67.75370788574219,-15.228515625,-38.78056335449219,,,,,,,,,,
0,2023-08-26 17:24:32.7410,01:07,10,0,2023-08-26 17:24:53.7430,1693088693.743186,0.03262851759791374,-0.013641776517033577,-0.0393545962870121,-0.6928863525390625,-0.3999786376953125,-0.6057281494140625,67.91375732421875,-15.203872680664062,-38.82521057128906,,,,,,,,,,
0,2023-08-26 17:24:32.7410,01:07,10,0,2023-08-26 17:24:53.8430,1693088693.843353,0.045040179044008255,0.008685899898409843,-0.03635774180293083,-0.69085693359375,-0.4508819580078125,-0.583709716796875,67.79025268554688,-15.14373779296875,-38.78559875488281,,,,,,,,,,
0,2023-08-26 17:24:32.7410,01:07,10,0,2023-08-26 17:24:53.9430,1693088693.943256,0.014073740690946579,0.0044293696992099285,0.04286251217126846,-0.6987457275390625,-0.4164276123046875,-0.595977783203125,67.73313903808594,-15.074569702148438,-39.20603942871094,,,,,,,,,,
0,2023-08-26 17:24:32.7410,01:07,10,0,2023-08-26 17:24:54.0420,1693088694.0417972,0.022301044315099716,0.001672198879532516,-0.04615018516778946,-0.6867523193359375,-0.393829345703125,-0.5855255126953125,67.97244262695312,-15.066070556640625,-39.36982727050781,,,,,,,,,,
0,2023-08-26 17:24:32.7410,01:07,10,0,2023-08-26 17:24:54.1420,1693088694.14165,0.024508539587259293,-0.004564924165606499,0.0012322446564212441,-0.6844482421875,-0.4169921875,-0.5934295654296875,67.81979370117188,-15.116439819335938,-39.567474365234375,,,,,,,,,,
0,2023-08-26 17:24:32.7410,01:07,10,0,2023-08-26 17:24:54.2430,1693088694.243012,0.010603642091155052,-0.002659698948264122,-0.002627741079777479,-0.675384521484375,-0.4128265380859375,-0.5973052978515625,67.78726196289062,-14.826873779296875,-39.51731872558594,,,,,,,,,,
0,2023-08-26 17:24:32.7410,01:07,10,0,2023-08-26 17:24:54.3430,1693088694.34306,-0.00047830372932367027,-0.004142014309763908,0.01769031397998333,-0.67974853515625,-0.4196014404296875,-0.5938873291015625,68.0546875,-14.947067260742188,-39.22552490234375,,,,,,,,,,
0,2023-08-26 17:24:32.7410,01:07,10,0,2023-08-26 17:24:54.4430,1693088694.443325,0.02816958539187908,-0.014649515971541405,-0.014793060719966888,-0.683380126953125,-0.399749755859375,-0.59149169921875,67.98780822753906,-14.981048583984375,-39.13031005859375,,,,,,,,,,
0,2023-08-26 17:24:32.7410,01:07,10,0,2023-08-26 17:24:54.5430,1693088694.543202,0.05735250562429428,0.00788402184844017,-0.02106080949306488,-0.70111083984375,-0.4283599853515625,-0.5935211181640625,67.92066955566406,-15.1285400390625,-38.93791198730469,,,,,,,,,,
0,2023-08-26 17:24:32.7410,01:07,10,0,2023-08-26 17:24:54.6430,1693088694.643282,0.004451207350939512,-0.0041031320579349995,0.028054004535079002,-0.695648193359375,-0.4086151123046875,-0.593963623046875,68.07505798339844,-15.151260375976562,-39.21070861816406,,,,,,,,,,
0,2023-08-26 17:24:32.7410,01:07,10,0,2023-08-26 17:24:54.7430,1693088694.7432652,0.029386650770902634,0.0049345712177455425,-0.03501923754811287,-0.6915283203125,-0.4227447509765625,-0.5926971435546875,68.12190246582031,-14.647796630859375,-38.98371887207031,,,,,,,,,,
0,2023-08-26 17:24:32.7410,01:07,10,0,2023-08-26 17:24:54.8430,1693088694.843122,0.0052232579328119755,-0.00010279801790602505,0.036795832216739655,-0.6914215087890625,-0.4232330322265625,-0.606658935546875,68.1234130859375,-14.640243530273438,-39.104339599609375,,,,,,,,,,
0,2023-08-26 17:24:32.7410,01:07,10,0,2023-08-26 17:24:54.9430,1693088694.943246,0.0246675293892622,-0.00446958327665925,-0.028742166236042976,-0.679718017578125,-0.4174652099609375,-0.5971527099609375,68.00494384765625,-14.7772216796875,-39.11442565917969,,,,,,,,,,
0,2023-08-26 17:24:32.7410,01:07,10,0,2023-08-26 17:24:55.0430,1693088695.043326,0.08524379134178162,0.0031140341889113188,-0.031257256865501404,-0.690399169921875,-0.4278411865234375,-0.5782470703125,67.98002624511719,-15.047225952148438,-39.28932189941406,,,,,,,,,,
0,2023-08-26 17:24:32.7410,01:07,10,0,2023-08-26 17:24:55.1430,1693088695.1427798,-0.0023299995809793472,-0.005915413144975901,0.038366299122571945,-0.7057342529296875,-0.3949737548828125,-0.5955047607421875,68.05242919921875,-15.008529663085938,-39.05165100097656,,,,,,,,,,
0,2023-08-26 17:24:32.7410,01:07,10,0,2023-08-26 17:24:55.2430,1693088695.243147,-0.10331520438194275,-0.0005733785801567137,-0.016173377633094788,-0.673858642578125,-0.3795623779296875,-0.5973052978515625,67.9024658203125,-14.708465576171875,-38.98704528808594,,,,,,,,,,
0,2023-08-26 17:24:32.7410,01:07,10,0,2023-08-26 17:24:55.3440,1693088695.343577,-0.04721678048372269,-0.016989368945360184,0.02153352089226246,-0.6876678466796875,-0.4130401611328125,-0.6059112548828125,67.85142517089844,-14.91558837890625,-38.69317626953125,,,,,,,,,,
0,2023-08-26 17:24:32.7410,01:07,10,0,2023-08-26 17:24:55.4430,1693088695.4428291,-0.07019399851560593,-0.01967543363571167,-0.017555290833115578,-0.681243896484375,-0.3932342529296875,-0.59588623046875,68.0821533203125,-15.118453979492188,-38.98988342285156,,,,,,,,,,
0,2023-08-26 17:24:32.7410,01:07,10,0,2023-08-26 17:24:55.5430,1693088695.542855,0.038186535239219666,0.002273274352774024,-0.04378742724657059,-0.6911773681640625,-0.4329986572265625,-0.575592041015625,67.983642578125,-15.226852416992188,-38.99591064453125,,,,,,,,,,
0,2023-08-26 17:24:32.7410,01:07,10,0,2023-08-26 17:24:55.6430,1693088695.642949,-0.00032091091270558536,-0.016041018068790436,0.024229971691966057,-0.6984405517578125,-0.386993408203125,-0.6053009033203125,67.86386108398438,-15.183807373046875,-38.940216064453125,,,,,,,,,,
0,2023-08-26 17:24:32.7410,01:07,10,0,2023-08-26 17:24:55.7430,1693088695.7428222,0.012688897550106049,-0.009185508824884892,-0.040894702076911926,-0.6806182861328125,-0.39202880859375,-0.5921783447265625,68.00550842285156,-15.264190673828125,-38.97868347167969,,,,,,,,,,
0,2023-08-26 17:24:32.7410,01:07,10,0,2023-08-26 17:24:55.8430,1693088695.8430681,-0.03758998587727547,-0.003355849301442504,0.03327193483710289,-0.6904144287109375,-0.4178924560546875,-0.618896484375,67.98020935058594,-15.100509643554688,-39.29376220703125,,,,,,,,,,
0,2023-08-26 17:24:32.7410,01:07,10,0,2023-08-26 17:24:55.9430,1693088695.9428658,0.0018767296569421887,-0.024761538952589035,-0.02292662113904953,-0.6830291748046875,-0.412445068359375,-0.596343994140625,68.11882019042969,-15.3128662109375,-39.23046875,,,,,,,,,,
0,2023-08-26 17:24:32.7410,01:07,10,0,2023-08-26 17:24:56.0430,1693088696.043215,0.055815327912569046,-0.01309183333069086,-0.02983992174267769,-0.688018798828125,-0.4474945068359375,-0.5822601318359375,67.92018127441406,-15.318328857421875,-39.01091003417969,,,,,,,,,,
0,2023-08-26 17:24:32.7410,01:07,10,0,2023-08-26 17:24:56.1390,1693088696.138974,0.04328062757849693,-0.0031997880432754755,0.02684413082897663,-0.7043304443359375,-0.428680419921875,-0.5967254638671875,68.02427673339844,-14.906402587890625,-39.09149169921875,,,,,,,,,,
0,2023-08-26 17:24:32.7410,01:07,10,0,2023-08-26 17:24:56.2390,1693088696.238871,-0.04380740225315094,-0.003792874049395323,0.022547919303178787,-0.677215576171875,-0.3905181884765625,-0.602447509765625,69.0557861328125,-16.216552734375,-34.162506103515625,,,,,,,,,,
0,2023-08-26 17:24:32.7410,01:07,10,0,2023-08-26 17:24:56.3390,1693088696.339222,-0.06192328780889511,-0.022730613127350807,0.0009760485263541341,-0.6822052001953125,-0.3997650146484375,-0.606231689453125,68.81182861328125,-16.078750610351562,-34.38787841796875,,,,,,,,,,
0,2023-08-26 17:24:32.7410,01:07,10,0,2023-08-26 17:24:56.4390,1693088696.439249,-0.028799956664443016,-0.013322463259100914,-0.022495456039905548,-0.6805877685546875,-0.412384033203125,-0.5773773193359375,68.03248596191406,-14.961380004882812,-38.44227600097656,,,,,,,,,,
0,2023-08-26 17:24:32.7410,01:07,10,0,2023-08-26 17:24:56.5420,1693088696.541761,-0.023734090849757195,0.010441722348332405,0.02785266935825348,-0.694000244140625,-0.40869140625,-0.5904388427734375,67.97543334960938,-15.165283203125,-38.49647521972656,,,,,,,,,,
0,2023-08-26 17:24:32.7410,01:07,10,0,2023-08-26 17:24:56.6420,1693088696.642029,-0.03510099649429321,-0.003968642558902502,0.010571151971817017,-0.69805908203125,-0.396881103515625,-0.6038818359375,68.06417846679688,-15.038864135742188,-38.6900634765625,,,,,,,,,,
0,2023-08-26 17:24:32.7410,01:07,10,0,2023-08-26 17:24:56.7400,1693088696.740444,0.06205937638878822,-0.0038903458043932915,-0.030522223562002182,-0.688934326171875,-0.4437103271484375,-0.5924530029296875,68.3607177734375,-15.883514404296875,-36.4813232421875,,,,,,,,,,
0,2023-08-26 17:24:32.7410,01:07,10,0,2023-08-26 17:24:56.8400,1693088696.8396049,-0.0009286442655138671,-0.002966228872537613,0.026939472183585167,-0.6904754638671875,-0.415740966796875,-0.603363037109375,68.12040710449219,-15.375778198242188,-38.463958740234375,,,,,,,,,,
0,2023-08-26 17:24:32.7410,01:07,10,0,2023-08-26 17:24:56.9410,1693088696.9412022,0.009158611297607422,0.0033726270776242018,0.015446067787706852,-0.68499755859375,-0.4132537841796875,-0.5773773193359375,68.18064880371094,-14.82537841796875,-38.75834655761719,,,,,,,,,,
0,2023-08-26 17:24:32.7410,01:07,10,0,2023-08-26 17:24:57.0400,1693088697.040098,-0.03441869467496872,0.03297419473528862,0.08179153501987457,-0.70751953125,-0.414093017578125,-0.5951995849609375,68.26750183105469,-14.139938354492188,-38.837554931640625,,,,,,,,,,
0,2023-08-26 17:24:32.7410,01:07,10,0,2023-08-26 17:24:57.1430,1693088697.142857,-0.17895163595676422,-0.012178368866443634,0.122667595744133,-0.7025604248046875,-0.3668060302734375,-0.621795654296875,68.0396728515625,-12.946640014648438,-39.21424865722656,,,,,,,,,,
0,2023-08-26 17:24:32.7410,01:07,10,0,2023-08-26 17:24:57.2430,1693088697.243247,-0.020532172173261642,0.04688068851828575,0.1331133097410202,-0.6968994140625,-0.409759521484375,-0.580718994140625,67.98817443847656,-12.295745849609375,-39.90045166015625,,,,,,,,,,
0,2023-08-26 17:24:32.7410,01:07,10,0,2023-08-26 17:24:57.3440,1693088697.3435678,-0.10807719826698303,0.09657341241836548,0.33944171667099,-0.7051544189453125,-0.3841094970703125,-0.6030731201171875,68.29823303222656,-10.406692504882812,-40.39585876464844,,,,,,,,,,
0,2023-08-26 17:24:32.7410,01:07,10,0,2023-08-26 17:24:57.4430,1693088697.443128,-0.018573684617877007,0.15557149052619934,0.41242218017578125,-0.6999664306640625,-0.3258056640625,-0.6174468994140625,68.74031066894531,-8.39776611328125,-40.93421936035156,,,,,,,,,,
0,2023-08-26 17:24:32.7410,01:07,10,0,2023-08-26 17:24:57.5430,1693088697.543366,-0.025719478726387024,0.3034331202507019,0.6183340549468994,-0.742034912109375,-0.3311920166015625,-0.6136627197265625,70.21273803710938,-6.05523681640625,-41.558624267578125,,,,,,,,,,
0,2023-08-26 17:24:32.7410,01:07,10,0,2023-08-26 17:24:57.6440,1693088697.643839,0.05029672756791115,0.49920687079429626,0.7600597739219666,-0.716033935546875,-0.2712554931640625,-0.6483917236328125,72.50155639648438,-3.7827911376953125,-43.53044128417969,,,,,,,,,,
0,2023-08-26 17:24:32.7410,01:07,10,0,2023-08-26 17:24:57.7410,1693088697.740731,0.19193561375141144,0.43152955174446106,0.7484100461006165,-0.68499755859375,-0.214599609375,-0.7521514892578125,74.82498168945312,-2.903656005859375,-44.84312438964844,,,,,,,,,,
0,2023-08-26 17:24:32.7410,01:07,10,0,2023-08-26 17:24:57.8430,1693088697.843018,0.10665587335824966,0.4769665598869324,0.6890169978141785,-0.6403961181640625,-0.1304931640625,-0.7588653564453125,77.31663513183594,-2.4496307373046875,-45.84527587890625,,,,,,,,,,
0,2023-08-26 17:24:32.7410,01:07,10,0,2023-08-26 17:24:57.9430,1693088697.943163,0.29946261644363403,0.392413854598999,0.6842329502105713,-0.643341064453125,-0.1143951416015625,-0.695404052734375,79.34574890136719,-2.744384765625,-47.40533447265625,,,,,,,,,,
0,2023-08-26 17:24:32.7410,01:07,10,0,2023-08-26 17:24:58.0430,1693088698.0429049,0.08392126858234406,0.4955436885356903,0.6649396419525146,-0.6154022216796875,-0.0947723388671875,-0.7305145263671875,82.2515869140625,-2.324462890625,-48.52388000488281,,,,,,,,,,
0,2023-08-26 17:24:32.7410,01:07,10,0,2023-08-26 17:24:58.1430,1693088698.142695,0.1553749442100525,0.5319169163703918,0.5564917325973511,-0.5702667236328125,-0.0861358642578125,-0.790374755859375,85.70396423339844,-2.7796783447265625,-49.389556884765625,,,,,,,,,,
0,2023-08-26 17:24:32.7410,01:07,10,0,2023-08-26 17:24:58.2430,1693088698.243216,-0.009905627928674221,0.5394940972328186,0.5619134306907654,-0.5175018310546875,-0.062286376953125,-0.8623046875,89.66319274902344,-2.614776611328125,-50.347198486328125,,,,,,,,,,
0,2023-08-26 17:24:32.7410,01:07,10,0,2023-08-26 17:24:58.3430,1693088698.34287,-0.48757633566856384,0.6136400103569031,0.4768208861351013,-0.5097808837890625,-0.0003509521484375,-0.8704376220703125,93.69436645507812,-0.0722808837890625,-51.62239074707031,,,,,,,,,,
0,2023-08-26 17:24:32.7410,01:07,10,0,2023-08-26 17:24:58.4430,1693088698.4431171,0.07313120365142822,0.4548969268798828,0.5506801605224609,-0.3599090576171875,0.0259552001953125,-0.8534393310546875,97.00401306152344,-0.0431060791015625,-52.376434326171875,,,,,,,,,,
0,2023-08-26 17:24:32.7410,01:07,10,0,2023-08-26 17:24:58.5430,1693088698.5429559,-0.27005571126937866,0.5682980418205261,0.49421611428260803,-0.385589599609375,0.045684814453125,-0.9123382568359375,100.47688293457031,1.6055145263671875,-53.40205383300781,,,,,,,,,,
0,2023-08-26 17:24:32.7410,01:07,10,0,2023-08-26 17:24:58.6430,1693088698.6427531,-0.14029239118099213,0.5577066540718079,0.4494475722312927,-0.3245849609375,0.1144256591796875,-0.916534423828125,104.5225830078125,2.329803466796875,-53.631256103515625,,,,,,,,,,
0,2023-08-26 17:24:32.7410,01:07,10,0,2023-08-26 17:24:58.7430,1693088698.742718,-0.28060397505760193,0.5737311840057373,0.21099160611629486,-0.2768707275390625,0.1477508544921875,-0.9672698974609375,108.17648315429688,3.8017425537109375,-53.634368896484375,,,,,,,,,,
0,2023-08-26 17:24:32.7410,01:07,10,0,2023-08-26 17:24:58.8430,1693088698.842927,-0.4618733525276184,0.5888920426368713,0.22391273081302643,-0.2248992919921875,0.1964263916015625,-0.9506683349609375,111.90196228027344,5.7771453857421875,-53.696258544921875,,,,,,,,,,
0,2023-08-26 17:24:32.7410,01:07,10,0,2023-08-26 17:24:58.9430,1693088698.942676,-0.3747296631336212,0.5569412708282471,0.20230649411678314,-0.14129638671875,0.2186737060546875,-0.9644317626953125,115.44985961914062,6.8900299072265625,-53.32525634765625,,,,,,,,,,
0,2023-08-26 17:24:32.7410,01:07,10,0,2023-08-26 17:24:59.0430,1693088699.04254,-0.201119527220726,0.44723954796791077,0.08125703781843185,-0.086395263671875,0.2532958984375,-0.9962005615234375,117.77476501464844,7.833465576171875,-53.188018798828125,,,,,,,,,,
0,2023-08-26 17:24:32.7410,01:07,10,0,2023-08-26 17:24:59.1430,1693088699.142611,-0.11065008491277695,0.1697126030921936,0.12925413250923157,-0.077392578125,0.232635498046875,-0.9740142822265625,118.7950439453125,8.124298095703125,-53.01861572265625,,,,,,,,,,
0,2023-08-26 17:24:32.7410,01:07,10,0,2023-08-26 17:24:59.2400,1693088699.23983,-0.2477853000164032,0.024574585258960724,0.30674049258232117,-0.0392913818359375,0.27130126953125,-0.9704742431640625,118.84437561035156,9.143875122070312,-52.69544982910156,,,,,,,,,,
0,2023-08-26 17:24:32.7410,01:07,10,0,2023-08-26 17:24:59.3430,1693088699.34308,-0.36834579706192017,0.06884484738111496,0.16011670231819153,-0.0345916748046875,0.2942352294921875,-0.9549713134765625,119.02597045898438,10.752182006835938,-52.34358215332031,,,,,,,,,,
0,2023-08-26 17:24:32.7410,01:07,10,0,2023-08-26 17:24:59.4430,1693088699.4428,-0.3110817074775696,0.2742443382740021,-0.015299327671527863,-0.0316009521484375,0.3412322998046875,-0.93804931640625,120.27017211914062,12.583663940429688,-51.8154296875,,,,,,,,,,
0,2023-08-26 17:24:32.7410,01:07,10,0,2023-08-26 17:24:59.5430,1693088699.543078,0.17221704125404358,0.13449601829051971,0.047625042498111725,0.03082275390625,0.40252685546875,-0.938140869140625,120.8297119140625,11.43072509765625,-51.969512939453125,,,,,,,,,,
0,2023-08-26 17:24:32.7410,01:07,10,0,2023-08-26 17:24:59.6430,1693088699.642993,0.2704373598098755,0.010174606926739216,-0.022875221446156502,0.039459228515625,0.325164794921875,-0.94696044921875,120.79806518554688,10.283935546875,-51.693817138671875,,,,,,,,,,
0,2023-08-26 17:24:32.7410,01:07,10,0,2023-08-26 17:24:59.7430,1693088699.74257,0.16760417819023132,0.0020090886391699314,-0.013591175898909569,0.0229644775390625,0.284393310546875,-0.9540863037109375,120.90876770019531,9.516067504882812,-52.292236328125,,,,,,,,,,
0,2023-08-26 17:24:32.7410,01:07,10,0,2023-08-26 17:24:59.8430,1693088699.842778,-0.08156543225049973,-0.05317773297429085,-0.019217902794480324,0.0448150634765625,0.302276611328125,-0.9628143310546875,120.55842590332031,9.965438842773438,-52.390106201171875,,,,,,,,,,
0,2023-08-26 17:24:32.7410,01:07,10,0,2023-08-26 17:24:59.9430,1693088699.942766,-0.03230014815926552,-0.07441724091768265,-0.012208462692797184,0.0108489990234375,0.3220672607421875,-0.951507568359375,120.25468444824219,10.051925659179688,-52.333404541015625,,,,,,,,,,
0,2023-08-26 17:24:32.7410,01:07,10,0,2023-08-26 17:25:00.0410,1693088700.041039,-0.07798987627029419,-0.08052333444356918,-0.04023823142051697,0.0018310546875,0.3027191162109375,-0.953704833984375,119.98124694824219,10.72869873046875,-52.458038330078125,,,,,,,,,,
0,2023-08-26 17:24:32.7410,01:07,10,0,2023-08-26 17:25:00.1430,1693088700.142622,-0.03196512162685394,-0.09299571812152863,-0.013366937637329102,-0.010833740234375,0.332916259765625,-0.9520263671875,119.7586669921875,10.469482421875,-52.42469787597656,,,,,,,,,,
0,2023-08-26 17:24:32.7410,01:07,10,0,2023-08-26 17:25:00.2420,1693088700.242485,0.09608631581068039,-0.059297412633895874,-0.009664079174399376,-0.0321807861328125,0.319488525390625,-0.949310302734375,119.66128540039062,10.223098754882812,-52.97874450683594,,,,,,,,,,
0,2023-08-26 17:24:32.7410,01:07,10,0,2023-08-26 17:25:00.3400,1693088700.340108,-0.021325262263417244,0.007143396884202957,0.0007877630414441228,-0.0414581298828125,0.312835693359375,-0.9505767822265625,119.66128540039062,10.223098754882812,-52.97874450683594,,,,,,,,,,
0,2023-08-26 17:24:32.7410,01:07,10,0,2023-08-26 17:25:00.4430,1693088700.442862,-0.04304653778672218,0.0619315430521965,0.021347099915146828,-0.0317230224609375,0.3185577392578125,-0.953338623046875,119.89947509765625,10.238357543945312,-52.69068908691406,,,,,,,,,,
0,2023-08-26 17:24:32.7410,01:07,10,0,2023-08-26 17:25:00.5430,1693088700.5430841,-0.014241520315408707,0.10227657109498978,0.024888038635253906,-0.0208587646484375,0.3123931884765625,-0.9510345458984375,120.08810424804688,10.341629028320312,-52.83232116699219,,,,,,,,,,
0,2023-08-26 17:24:32.7410,01:07,10,0,2023-08-26 17:25:00.6430,1693088700.643367,-0.015977367758750916,0.09103776514530182,0.04174211993813515,0.00836181640625,0.3253021240234375,-0.9514617919921875,120.41874694824219,10.605392456054688,-52.45025634765625,,,,,,,,,,
0,2023-08-26 17:24:32.7410,01:07,10,0,2023-08-26 17:25:00.7410,1693088700.741471,-0.004578506574034691,0.06373903155326843,0.02821379527449608,0.022491455078125,0.3223724365234375,-0.9488983154296875,120.96829223632812,10.381973266601562,-52.41276550292969,,,,,,,,,,
0,2023-08-26 17:24:32.7410,01:07,10,0,2023-08-26 17:25:00.8440,1693088700.8435888,7.829693640815094e-05,0.03530552610754967,0.005005677696317434,0.034912109375,0.3267669677734375,-0.9519805908203125,121.23271179199219,10.54119873046875,-51.8382568359375,,,,,,,,,,
0,2023-08-26 17:24:32.7410,01:07,10,0,2023-08-26 17:25:00.9430,1693088700.943217,-0.012030564248561859,-0.016983510926365852,-0.005921272095292807,0.0320892333984375,0.320220947265625,-0.95233154296875,121.147705078125,10.2838134765625,-52.06245422363281,,,,,,,,,,
0,2023-08-26 17:24:32.7410,01:07,10,0,2023-08-26 17:25:01.0430,1693088701.043314,-0.03116883896291256,-0.03807574510574341,-0.018224012106657028,0.0254364013671875,0.32269287109375,-0.9507598876953125,121.00978088378906,10.084762573242188,-52.01707458496094,,,,,,,,,,
0,2023-08-26 17:24:32.7410,01:07,10,0,2023-08-26 17:25:01.1430,1693088701.142947,0.02473650500178337,-0.051890626549720764,-0.01468546874821186,0.0093994140625,0.333282470703125,-0.9487152099609375,120.92855834960938,10.769027709960938,-51.93922424316406,,,,,,,,,,
0,2023-08-26 17:24:32.7410,01:07,10,0,2023-08-26 17:25:01.2420,1693088701.241548,-0.008384696207940578,-0.02587900124490261,-0.023728765547275543,-0.0015716552734375,0.3254241943359375,-0.946624755859375,120.81427001953125,10.345901489257812,-52.13507080078125,,,,,,,,,,
0,2023-08-26 17:24:32.7410,01:07,10,0,2023-08-26 17:25:01.3410,1693088701.341466,0.027519509196281433,-0.013651629909873009,0.0028871328104287386,-0.0034637451171875,0.319732666015625,-0.949127197265625,120.72769165039062,10.430191040039062,-52.28045654296875,,,,,,,,,,
0,2023-08-26 17:24:32.7410,01:07,10,0,2023-08-26 17:25:01.4430,1693088701.4432669,0.013857492245733738,0.01672465167939663,0.009638778865337372,-0.0017242431640625,0.321319580078125,-0.9464569091796875,120.68212890625,10.634063720703125,-52.47831726074219,,,,,,,,,,
0,2023-08-26 17:24:32.7410,01:07,10,0,2023-08-26 17:25:01.5430,1693088701.543318,0.002859169617295265,0.019628562033176422,0.010610566474497318,0.0086517333984375,0.322723388671875,-0.948028564453125,120.99395751953125,10.482940673828125,-52.60762023925781,,,,,,,,,,
0,2023-08-26 17:24:32.7410,01:07,10,0,2023-08-26 17:25:01.6430,1693088701.643388,-0.021376129239797592,0.020298613235354424,0.0023180153220891953,0.0142059326171875,0.3233642578125,-0.9503631591796875,121.05078125,10.4266357421875,-52.29518127441406,,,,,,,,,,
0,2023-08-26 17:24:32.7410,01:07,10,0,2023-08-26 17:25:01.7420,1693088701.7422671,0.0032091091852635145,0.00723580876365304,-0.0014149374328553677,0.0161590576171875,0.32958984375,-0.9490966796875,121.03347778320312,10.382644653320312,-52.069000244140625,,,,,,,,,,
0,2023-08-26 17:24:32.7410,01:07,10,0,2023-08-26 17:25:01.8430,1693088701.842955,-0.033428531140089035,-0.002170742489397526,-0.009249424561858177,0.0166473388671875,0.32891845703125,-0.947662353515625,121.21739196777344,10.306671142578125,-52.156097412109375,,,,,,,,,,
0,2023-08-26 17:24:32.7410,01:07,10,0,2023-08-26 17:25:01.9430,1693088701.943032,-0.012238556519150734,-0.01363405305892229,-0.005505819339305162,0.017913818359375,0.32147216796875,-0.95166015625,121.17442321777344,10.1181640625,-52.1787109375,,,,,,,,,,
0,2023-08-26 17:24:32.7410,01:07,10,0,2023-08-26 17:25:02.0420,1693088702.0424871,0.014664962887763977,-0.02233033999800682,0.00016351809608750045,0.0173492431640625,0.32806396484375,-0.9514923095703125,121.06605529785156,10.453872680664062,-52.16413879394531,,,,,,,,,,
0,2023-08-26 17:24:32.7410,01:07,10,0,2023-08-26 17:25:02.1410,1693088702.141302,-0.001588841900229454,-0.021558554843068123,-0.007844873704016209,0.0132293701171875,0.334564208984375,-0.950164794921875,121.10600280761719,10.143722534179688,-52.33695983886719,,,,,,,,,,
0,2023-08-26 17:24:32.7410,01:07,10,0,2023-08-26 17:25:02.2440,1693088702.2436,-0.035168107599020004,-0.002445314545184374,-0.012471050955355167,0.0008087158203125,0.319366455078125,-0.947784423828125,120.97918701171875,10.151748657226562,-51.890533447265625,,,,,,,,,,
0,2023-08-26 17:24:32.7410,01:07,10,0,2023-08-26 17:25:02.3400,1693088702.33989,0.016448747366666794,-0.005328985396772623,-7.98948312876746e-05,0.0115509033203125,0.3330230712890625,-0.948577880859375,120.83721923828125,10.41259765625,-52.2667236328125,,,,,,,,,,
0,2023-08-26 17:24:32.7410,01:07,10,0,2023-08-26 17:25:02.4430,1693088702.443393,-0.009147691540420055,0.0054419031366705894,0.00032330775866284966,0.008697509765625,0.327423095703125,-0.946929931640625,120.97419738769531,10.42596435546875,-51.82337951660156,,,,,,,,,,
0,2023-08-26 17:24:32.7410,01:07,10,0,2023-08-26 17:25:02.5390,1693088702.538975,0.000853809411637485,-0.004161987919360399,0.001181378262117505,0.0128173828125,0.324188232421875,-0.9502410888671875,121.04812622070312,10.26568603515625,-51.321319580078125,,,,,,,,,,
0,2023-08-26 17:24:32.7410,01:07,10,0,2023-08-26 17:25:02.6390,1693088702.639416,-0.005044559482485056,-0.0067788101732730865,0.002049036091193557,0.0150299072265625,0.3295135498046875,-0.9499359130859375,120.85128784179688,10.641616821289062,-51.922088623046875,,,,,,,,,,
0,2023-08-26 17:24:32.7410,01:07,10,0,2023-08-26 17:25:02.7400,1693088702.73962,-0.022250976413488388,-0.010835071094334126,-0.006874683778733015,0.017730712890625,0.33807373046875,-0.9505462646484375,120.86109924316406,10.618881225585938,-51.80317687988281,,,,,,,,,,
0,2023-08-26 17:24:32.7410,01:07,10,0,2023-08-26 17:25:02.8400,1693088702.83972,-0.01884026639163494,0.001401089015416801,-0.00458676228299737,0.00787353515625,0.3283233642578125,-0.947723388671875,120.90817260742188,10.542434692382812,-51.902313232421875,,,,,,,,,,
0,2023-08-26 17:24:32.7410,01:07,10,0,2023-08-26 17:25:02.9390,1693088702.938827,-0.005877862684428692,-0.009381517767906189,-0.00657587731257081,0.0134735107421875,0.331573486328125,-0.9483795166015625,120.96978759765625,10.590789794921875,-52.25811767578125,,,,,,,,,,
0,2023-08-26 17:24:32.7410,01:07,10,0,2023-08-26 17:25:03.0390,1693088703.039305,-0.008346613496541977,0.0036914076190441847,-0.007459780666977167,0.0082550048828125,0.3254547119140625,-0.946807861328125,121.01336669921875,10.315322875976562,-51.63743591308594,,,,,,,,,,
0,2023-08-26 17:24:32.7410,01:07,10,0,2023-08-26 17:25:03.1400,1693088703.139916,0.023070698603987694,-0.0032871398143470287,0.009939982555806637,0.0109710693359375,0.332733154296875,-0.9471435546875,120.98298645019531,10.674819946289062,-52.47174072265625,,,,,,,,,,
0,2023-08-26 17:24:32.7410,01:07,10,0,2023-08-26 17:25:03.2400,1693088703.2395802,-0.00583711639046669,-0.002139317337423563,-0.0008040083339437842,0.01080322265625,0.33099365234375,-0.947021484375,121.11680603027344,10.387542724609375,-51.87049865722656,,,,,,,,,,
0,2023-08-26 17:24:32.7410,01:07,10,0,2023-08-26 17:25:03.3390,1693088703.339299,-0.015230352059006691,-0.011893411166965961,-0.005077316425740719,0.019195556640625,0.333953857421875,-0.9488525390625,121.15347290039062,10.388015747070312,-51.859710693359375,,,,,,,,,,
0,2023-08-26 17:24:32.7410,01:07,10,0,2023-08-26 17:25:03.4400,1693088703.439557,-0.020899688825011253,0.0022658174857497215,-0.006871222052723169,0.0090484619140625,0.3274383544921875,-0.948822021484375,121.2615966796875,10.635360717773438,-52.10145568847656,,,,,,,,,,
0,2023-08-26 17:24:32.7410,01:07,10,0,2023-08-26 17:25:03.5390,1693088703.539331,-0.001998968655243516,-0.0065010422840714455,-0.00035899411886930466,0.014801025390625,0.33404541015625,-0.9474945068359375,121.24028015136719,10.75823974609375,-52.5035400390625,,,,,,,,,,
0,2023-08-26 17:24:32.7410,01:07,10,0,2023-08-26 17:25:03.6390,1693088703.639072,-0.038717035204172134,0.004777710884809494,-0.0020815266761928797,0.012420654296875,0.3408660888671875,-0.9454345703125,121.10000610351562,10.8477783203125,-52.06207275390625,,,,,,,,,,
0,2023-08-26 17:24:32.7410,01:07,10,0,2023-08-26 17:25:03.7420,1693088703.74158,-0.0031462584156543016,-0.005155880004167557,-0.003947070799767971,0.0119476318359375,0.332122802734375,-0.9461822509765625,121.10595703125,10.749618530273438,-52.15974426269531,,,,,,,,,,
0,2023-08-26 17:24:32.7410,01:07,10,0,2023-08-26 17:25:03.8410,1693088703.841491,-0.003949734382331371,-0.008977515622973442,-0.00039015308720991015,0.011566162109375,0.3333282470703125,-0.946197509765625,121.318603515625,10.827194213867188,-52.05049133300781,,,,,,,,,,
0,2023-08-26 17:24:32.7410,01:07,10,0,2023-08-26 17:25:03.9410,1693088703.9409761,0.0025390577502548695,-0.011749067343771458,-0.008527441881597042,0.0147705078125,0.34222412109375,-0.94464111328125,121.08059692382812,10.85394287109375,-51.93266296386719,,,,,,,,,,
0,2023-08-26 17:24:32.7410,01:07,10,0,2023-08-26 17:25:04.0430,1693088704.0428982,-0.015064969658851624,-0.000595216522924602,-0.002035187790170312,0.0084686279296875,0.3319854736328125,-0.944671630859375,120.97212219238281,10.792648315429688,-51.72950744628906,,,,,,,,,,
0,2023-08-26 17:24:32.7410,01:07,10,0,2023-08-26 17:25:04.1400,1693088704.140469,0.0124220484867692,-0.00418329332023859,0.0010836402652785182,0.013916015625,0.3347625732421875,-0.9482421875,120.94371032714844,10.8050537109375,-51.03746032714844,,,,,,,,,,
0,2023-08-26 17:24:32.7410,01:07,10,0,2023-08-26 17:25:04.2430,1693088704.243223,-0.023607857525348663,0.004135889001190662,-0.0067844027653336525,0.011932373046875,0.332489013671875,-0.9473724365234375,120.88154602050781,10.744216918945312,-52.10554504394531,,,,,,,,,,
0,2023-08-26 17:24:32.7410,01:07,10,0,2023-08-26 17:25:04.3430,1693088704.343264,-0.013184777460992336,-0.001333178486675024,0.0019038938917219639,0.0146942138671875,0.3330535888671875,-0.9466400146484375,120.82606506347656,10.939849853515625,-52.326812744140625,,,,,,,,,,
0,2023-08-26 17:24:32.7410,01:07,10,0,2023-08-26 17:25:04.4430,1693088704.442934,-0.0034016557037830353,-0.0016378440195694566,-0.00044075315236113966,0.0142822265625,0.3362884521484375,-0.9473876953125,120.90316772460938,10.901321411132812,-52.0362548828125,,,,,,,,,,
0,2023-08-26 17:24:32.7410,01:07,10,0,2023-08-26 17:25:04.5430,1693088704.5425692,0.001987250754609704,-0.006855242885649204,-0.0027888622134923935,0.0150299072265625,0.3413543701171875,-0.946380615234375,121.05661010742188,11.2518310546875,-52.17951965332031,,,,,,,,,,
0,2023-08-26 17:24:32.7410,01:07,10,0,2023-08-26 17:25:04.6430,1693088704.642908,-0.018936406821012497,0.00637747161090374,-0.014450045302510262,0.0094146728515625,0.3361053466796875,-0.9428863525390625,121.21965026855469,10.953704833984375,-52.45100402832031,,,,,,,,,,
0,2023-08-26 17:24:32.7410,01:07,10,0,2023-08-26 17:25:04.7430,1693088704.74261,0.0027486486360430717,-0.0044173854403197765,0.000322775129461661,0.0142822265625,0.3389129638671875,-0.9461669921875,121.0225830078125,11.071273803710938,-52.19691467285156,,,,,,,,,,
0,2023-08-26 17:24:32.7410,01:07,10,0,2023-08-26 17:25:04.8420,1693088704.842379,-0.01631052978336811,0.00818043202161789,-0.009821471758186817,0.01483154296875,0.33697509765625,-0.9431915283203125,121.17210388183594,10.967376708984375,-52.40045166015625,,,,,,,,,,
0,2023-08-26 17:24:32.7410,01:07,10,0,2023-08-26 17:25:04.9430,1693088704.942647,0.007029680069535971,-0.0016466324450448155,-0.0020642161834985018,0.0152130126953125,0.3367462158203125,-0.9450531005859375,121.20535278320312,11.221694946289062,-52.21549987792969,,,,,,,,,,
0,2023-08-26 17:24:32.7410,01:07,10,0,2023-08-26 17:25:05.0420,1693088705.042296,-0.0010090717114508152,0.0008428904693573713,0.0041057956404984,0.0145416259765625,0.338287353515625,-0.9446563720703125,121.17068481445312,11.1705322265625,-52.574188232421875,,,,,,,,,,
0,2023-08-26 17:24:32.7410,01:07,10,0,2023-08-26 17:25:05.1430,1693088705.1428409,-0.02491174079477787,-0.005917011294513941,-0.0026754115242511034,0.018310546875,0.3413238525390625,-0.94378662109375,121.00239562988281,11.311477661132812,-52.60203552246094,,,,,,,,,,
0,2023-08-26 17:24:32.7410,01:07,10,0,2023-08-26 17:25:05.2430,1693088705.242806,-0.030906517058610916,0.0034650389570742846,-0.004643487744033337,0.0130462646484375,0.3374481201171875,-0.9421844482421875,121.3050537109375,11.254302978515625,-52.230560302734375,,,,,,,,,,
0,2023-08-26 17:24:32.7410,01:07,10,0,2023-08-26 17:25:05.3420,1693088705.3419561,0.004175836686044931,-0.007297860458493233,0.0015334481140598655,0.0182952880859375,0.3423004150390625,-0.9430389404296875,121.15565490722656,11.297500610351562,-52.61616516113281,,,,,,,,,,
0,2023-08-26 17:24:32.7410,01:07,10,0,2023-08-26 17:25:05.4420,1693088705.442141,0.00526693370193243,0.002388589084148407,-0.0008562062866985798,0.016021728515625,0.3415069580078125,-0.942169189453125,121.1602783203125,11.435333251953125,-52.32550048828125,,,,,,,,,,
0,2023-08-26 17:24:32.7410,01:07,10,0,2023-08-26 17:25:05.5410,1693088705.541337,-0.00720491586253047,-0.005727394018322229,-0.005948436446487904,0.0175933837890625,0.3391265869140625,-0.9442901611328125,121.15017700195312,11.347671508789062,-52.26246643066406,,,,,,,,,,
0,2023-08-26 17:24:32.7410,01:07,10,0,2023-08-26 17:25:05.6430,1693088705.643126,-0.003290601773187518,-0.006361759267747402,-0.0020727382507175207,0.0182647705078125,0.3358306884765625,-0.944793701171875,121.20751953125,11.29803466796875,-52.585113525390625,,,,,,,,,,
0,2023-08-26 17:24:32.7410,01:07,10,0,2023-08-26 17:25:05.7420,1693088705.7424932,-0.0011073424248024821,-0.009022523649036884,-0.005176119972020388,0.021270751953125,0.34014892578125,-0.94793701171875,121.29530334472656,10.916473388671875,-52.030548095703125,,,,,,,,,,
0,2023-08-26 17:24:32.7410,01:07,10,0,2023-08-26 17:25:05.8420,1693088705.841718,0.013456420041620731,-0.005900765769183636,0.003285009181126952,0.012725830078125,0.33380126953125,-0.9427337646484375,121.18923950195312,11.285537719726562,-52.054351806640625,,,,,,,,,,
0,2023-08-26 17:24:32.7410,01:07,10,0,2023-08-26 17:25:05.9420,1693088705.942033,0.022588666528463364,-0.0017238641157746315,0.005079979542642832,0.0177459716796875,0.3438262939453125,-0.94512939453125,121.33180236816406,10.980255126953125,-51.87361145019531,,,,,,,,,,
0,2023-08-26 17:24:32.7410,01:07,10,0,2023-08-26 17:25:06.0390,1693088706.039104,-0.004485296085476875,0.002240251051262021,-2.1837920940015465e-05,0.0187225341796875,0.3396453857421875,-0.94537353515625,121.25486755371094,11.054092407226562,-51.724945068359375,,,,,,,,,,
0,2023-08-26 17:24:32.7410,01:07,10,0,2023-08-26 17:25:06.1420,1693088706.142002,-0.012880911119282246,-0.0008556736283935606,-0.004691957030445337,0.021820068359375,0.3428802490234375,-0.9445648193359375,121.17585754394531,11.1043701171875,-52.22087097167969,,,,,,,,,,
0,2023-08-26 17:24:32.7410,01:07,10,0,2023-08-26 17:25:06.2440,1693088706.2438688,-0.017672469839453697,-0.003165166825056076,-0.007483748719096184,0.0179443359375,0.34124755859375,-0.94287109375,121.28289794921875,11.132003784179688,-51.62416076660156,,,,,,,,,,
0,2023-08-26 17:24:32.7410,01:07,10,0,2023-08-26 17:25:06.3390,1693088706.339493,-0.008199873380362988,5.512743518920615e-05,-0.00875194650143385,0.015106201171875,0.3404541015625,-0.94268798828125,121.41195678710938,10.875640869140625,-51.477996826171875,,,,,,,,,,
0,2023-08-26 17:24:32.7410,01:07,10,0,2023-08-26 17:25:06.4390,1693088706.43862,-0.0026581010315567255,-0.008537028916180134,-0.004520183429121971,0.0162200927734375,0.3435821533203125,-0.9413299560546875,121.72288513183594,10.570480346679688,-50.079254150390625,,,,,,,,,,
0,2023-08-26 17:24:32.7410,01:07,10,0,2023-08-26 17:25:06.5390,1693088706.539247,-0.008414257317781448,-0.0023196132387965918,-0.010423612780869007,0.014984130859375,0.3417205810546875,-0.9445037841796875,121.49623107910156,10.937423706054688,-51.338134765625,,,,,,,,,,
0,2023-08-26 17:24:32.7410,01:07,10,0,2023-08-26 17:25:06.6390,1693088706.639224,-0.007419566623866558,-0.009848369285464287,-0.00395639194175601,0.0178375244140625,0.3427734375,-0.9431610107421875,121.32028198242188,11.236297607421875,-51.69329833984375,,,,,,,,,,
0,2023-08-26 17:24:32.7410,01:07,10,0,2023-08-26 17:25:06.7390,1693088706.738934,-0.020371584221720695,0.003237072378396988,-0.005820072256028652,0.0174407958984375,0.3346099853515625,-0.943634033203125,121.50135803222656,10.953567504882812,-51.849151611328125,,,,,,,,,,
0,2023-08-26 17:24:32.7410,01:07,10,0,2023-08-26 17:25:06.8390,1693088706.8389978,0.026702716946601868,-0.009376457892358303,0.008356200531125069,0.0189361572265625,0.33856201171875,-0.9438323974609375,121.35012817382812,11.052154541015625,-51.848724365234375,,,,,,,,,,
0,2023-08-26 17:24:32.7410,01:07,10,0,2023-08-26 17:25:06.9390,1693088706.939118,0.004796086810529232,-0.0044104610569775105,-0.0009797769598662853,0.01824951171875,0.3430023193359375,-0.944427490234375,121.55691528320312,10.813751220703125,-52.06477355957031,,,,,,,,,,
0,2023-08-26 17:24:32.7410,01:07,10,0,2023-08-26 17:25:07.0390,1693088707.039318,-0.0073628416284918785,-0.00589490681886673,-0.005119128152728081,0.017059326171875,0.338653564453125,-0.943389892578125,121.44868469238281,11.003631591796875,-52.192352294921875,,,,,,,,,,
0,2023-08-26 17:24:32.7410,01:07,10,0,2023-08-26 17:25:07.1390,1693088707.139077,0.004436826333403587,-0.011427357792854309,-0.0030415961518883705,0.0190887451171875,0.3419342041015625,-0.94342041015625,121.30146789550781,10.763916015625,-51.50341796875,,,,,,,,,,
0,2023-08-26 17:24:32.7410,01:07,10,0,2023-08-26 17:25:07.2390,1693088707.2393641,-0.0161797683686018,-0.001449292292818427,-0.00583605095744133,0.0160369873046875,0.3387603759765625,-0.9447021484375,121.22271728515625,10.742904663085938,-52.30857849121094,,,,,,,,,,
0,2023-08-26 17:24:32.7410,01:07,10,0,2023-08-26 17:25:07.3390,1693088707.3388782,-0.002496979897841811,-0.0019044264918193221,-0.005164668429642916,0.0166778564453125,0.3413543701171875,-0.9437103271484375,121.20408630371094,11.080703735351562,-52.236175537109375,,,,,,,,,,
0,2023-08-26 17:24:32.7410,01:07,10,0,2023-08-26 17:25:07.4390,1693088707.439098,-0.022913837805390358,0.002085787709802389,-0.004821120295673609,0.015625,0.337310791015625,-0.9431304931640625,121.13142395019531,10.818389892578125,-52.02848815917969,,,,,,,,,,
0,2023-08-26 17:24:32.7410,01:07,10,0,2023-08-26 17:25:07.5430,1693088707.543237,0.016689231619238853,-0.011529623530805111,0.004503671545535326,0.01776123046875,0.335205078125,-0.9449462890625,121.47309875488281,10.858413696289062,-51.15596008300781,,,,,,,,,,
0,2023-08-26 17:24:32.7410,01:07,10,0,2023-08-26 17:25:07.6420,1693088707.641646,0.01726260967552662,-0.007423827890306711,0.0036557212006300688,0.017669677734375,0.3404541015625,-0.9431304931640625,121.07493591308594,11.05743408203125,-52.69874572753906,,,,,,,,,,
0,2023-08-26 17:24:32.7410,01:07,10,0,2023-08-26 17:25:07.7420,1693088707.742425,0.004550543148070574,-0.008852614089846611,-0.0004719121498055756,0.01824951171875,0.340301513671875,-0.9439544677734375,121.17367553710938,11.391983032226562,-52.91975402832031,,,,,,,,,,
0,2023-08-26 17:24:32.7410,01:07,10,0,2023-08-26 17:25:07.8430,1693088707.842593,-0.012557603418827057,-0.009023589082062244,-0.00315984059125185,0.0169830322265625,0.3373260498046875,-0.9442138671875,121.2880859375,11.139999389648438,-52.04527282714844,,,,,,,,,,
0,2023-08-26 17:24:32.7410,01:07,10,0,2023-08-26 17:25:07.9420,1693088707.9424171,-0.010573814623057842,-0.0008788431296125054,-0.005258944351226091,0.012542724609375,0.336456298828125,-0.9438323974609375,121.24125671386719,11.202056884765625,-52.731689453125,,,,,,,,,,
0,2023-08-26 17:24:32.7410,01:07,10,0,2023-08-26 17:25:08.0420,1693088708.042429,-0.0099636847153306,-0.003269829088822007,-0.003805657150223851,0.01470947265625,0.33868408203125,-0.9452362060546875,121.19425964355469,11.524505615234375,-52.68476867675781,,,,,,,,,,
0,2023-08-26 17:24:32.7410,01:07,10,0,2023-08-26 17:25:08.1420,1693088708.1423979,-0.010914699174463749,0.0015246596885845065,-0.003069559345021844,0.018524169921875,0.337677001953125,-0.9441680908203125,121.14669799804688,11.24700927734375,-52.549163818359375,,,,,,,,,,
0,2023-08-26 17:24:32.7410,01:07,10,0,2023-08-26 17:25:08.2420,1693088708.242311,0.016145946457982063,-0.008390821516513824,0.005014199763536453,0.016448974609375,0.339691162109375,-0.94476318359375,121.26199340820312,11.190567016601562,-52.439056396484375,,,,,,,,,,
0,2023-08-26 17:24:32.7410,01:07,10,0,2023-08-26 17:25:08.3420,1693088708.342207,-0.0054360441863536835,-0.001246892032213509,-0.007766576483845711,0.0156707763671875,0.341033935546875,-0.9439849853515625,121.27067565917969,11.230194091796875,-52.192718505859375,,,,,,,,,,
0,2023-08-26 17:24:32.7410,01:07,10,0,2023-08-26 17:25:08.4410,1693088708.441105,-0.0014801849611103535,-0.003940146882086992,-0.0044115264900028706,0.0134735107421875,0.339141845703125,-0.9423370361328125,121.41838073730469,11.1507568359375,-52.301971435546875,,,,,,,,,,
0,2023-08-26 17:24:32.7410,01:07,10,0,2023-08-26 17:25:08.5420,1693088708.5424109,0.009502158500254154,-0.010289655067026615,0.001942243310622871,0.0160369873046875,0.33941650390625,-0.9422454833984375,121.07965087890625,11.43267822265625,-52.461700439453125,,,,,,,,,,
0,2023-08-26 17:24:32.7410,01:07,10,0,2023-08-26 17:25:08.6430,1693088708.642672,-0.00893570389598608,-0.0029667613562196493,0.0034669029992073774,0.0190582275390625,0.3413238525390625,-0.947052001953125,121.15910339355469,11.32855224609375,-52.47453308105469,,,,,,,,,,
0,2023-08-26 17:24:32.7410,01:07,10,0,2023-08-26 17:25:08.7430,1693088708.742513,-0.020925521850585938,0.0023552996572107077,-0.007533017545938492,0.017608642578125,0.342437744140625,-0.94549560546875,121.220703125,11.504806518554688,-52.04966735839844,,,,,,,,,,
0,2023-08-26 17:24:32.7410,01:07,10,0,2023-08-26 17:25:08.8420,1693088708.8422399,-0.009354086592793465,0.0036543896421790123,-0.0032501218374818563,0.0181884765625,0.336517333984375,-0.9447021484375,121.21586608886719,11.29925537109375,-52.2691650390625,,,,,,,,,,
0,2023-08-26 17:24:32.7410,01:07,10,0,2023-08-26 17:25:08.9430,1693088708.942817,-0.004473311826586723,-0.0049526807852089405,-0.0018021611031144857,0.016571044921875,0.338714599609375,-0.9430389404296875,121.18385314941406,11.5645751953125,-52.0064697265625,,,,,,,,,,
0,2023-08-26 17:24:32.7410,01:07,10,0,2023-08-26 17:25:09.0420,1693088709.042471,-0.0037356161046773195,-0.004014449194073677,-0.0019462381023913622,0.016448974609375,0.3411407470703125,-0.9420166015625,121.07936096191406,11.547653198242188,-52.389556884765625,,,,,,,,,,
0,2023-08-26 17:24:32.7410,01:07,10,0,2023-08-26 17:25:09.1420,1693088709.142396,0.009956227615475655,-0.002624012529850006,-0.002116147894412279,0.01727294921875,0.342498779296875,-0.9414215087890625,121.25546264648438,11.158401489257812,-52.21417236328125,,,,,,,,,,
0,2023-08-26 17:24:32.7410,01:07,10,0,2023-08-26 17:25:09.2420,1693088709.242316,0.012895026244223118,-0.0076057217083871365,0.0003765709698200226,0.019012451171875,0.3473358154296875,-0.94287109375,121.48904418945312,11.212371826171875,-51.63124084472656,,,,,,,,,,
0,2023-08-26 17:24:32.7410,01:07,10,0,2023-08-26 17:25:09.3420,1693088709.342152,-0.019282884895801544,0.0008285093936137855,-0.009503756649792194,0.0176849365234375,0.3419342041015625,-0.9431610107421875,121.4376220703125,11.055252075195312,-52.259124755859375,,,,,,,,,,
0,2023-08-26 17:24:32.7410,01:07,10,0,2023-08-26 17:25:09.4430,1693088709.442531,-0.011812184937298298,-0.004051200579851866,-0.007594802882522345,0.0191497802734375,0.341644287109375,-0.9446563720703125,121.36563110351562,11.254852294921875,-52.33343505859375,,,,,,,,,,
0,2023-08-26 17:24:32.7410,01:07,10,0,2023-08-26 17:25:09.5420,1693088709.542296,-0.014255634509027004,0.0024527714122086763,-0.008953280746936798,0.0176544189453125,0.34063720703125,-0.9406890869140625,121.40483093261719,11.240325927734375,-52.30462646484375,,,,,,,,,,
0,2023-08-26 17:24:32.7410,01:07,10,0,2023-08-26 17:25:09.6420,1693088709.642313,0.008675780147314072,-0.008227303624153137,0.0005733785801567137,0.0184173583984375,0.339569091796875,-0.944000244140625,121.34234619140625,11.300827026367188,-51.94239807128906,,,,,,,,,,
0,2023-08-26 17:24:32.7410,01:07,10,0,2023-08-26 17:25:09.7420,1693088709.742216,-0.0057319216430187225,-0.005238703917711973,-0.000877511571161449,0.0197601318359375,0.341583251953125,-0.9430389404296875,121.36207580566406,11.425857543945312,-52.246826171875,,,,,,,,,,
0,2023-08-26 17:24:32.7410,01:07,10,0,2023-08-26 17:25:09.8420,1693088709.842243,0.0002567287301644683,-0.0035004590172320604,-0.004236556589603424,0.0168609619140625,0.339691162109375,-0.94354248046875,121.36207580566406,11.425857543945312,-52.246826171875,,,,,,,,,,
0,2023-08-26 17:24:32.7410,01:07,10,0,2023-08-26 17:25:09.9420,1693088709.942,0.0011448930017650127,-0.009061405435204506,-0.0075194351375103,0.021026611328125,0.3452911376953125,-0.9453277587890625,121.372802734375,11.376968383789062,-52.23143005371094,,,,,,,,,,
0,2023-08-26 17:24:32.7410,01:07,10,0,2023-08-26 17:25:10.0430,1693088710.042677,-0.004443750716745853,0.002323075430467725,0.0022034994326531887,0.015960693359375,0.3388519287109375,-0.9418487548828125,121.30953979492188,11.380661010742188,-51.85832214355469,,,,,,,,,,
0,2023-08-26 17:24:32.7410,01:07,10,0,2023-08-26 17:25:10.1420,1693088710.14228,-0.007999337278306484,0.002490055514499545,-0.0033305492252111435,0.0198974609375,0.3423919677734375,-0.942291259765625,121.43702697753906,11.163406372070312,-52.08677673339844,,,,,,,,,,
0,2023-08-26 17:24:32.7410,01:07,10,0,2023-08-26 17:25:10.2420,1693088710.242321,-0.003145193215459585,0.0020607539918273687,-0.0003683151735458523,0.0213775634765625,0.3378448486328125,-0.9452972412109375,121.39230346679688,11.2750244140625,-52.09165954589844,,,,,,,,,,
0,2023-08-26 17:24:32.7410,01:07,10,0,2023-08-26 17:25:10.3430,1693088710.3425012,-0.011095793917775154,0.001776328426785767,-0.00032384038786403835,0.02191162109375,0.344512939453125,-0.9428558349609375,121.44071960449219,11.310897827148438,-51.823699951171875,,,,,,,,,,
0,2023-08-26 17:24:32.7410,01:07,10,0,2023-08-26 17:25:10.4430,1693088710.442555,-0.00523577444255352,0.001044491771608591,-0.005902363918721676,0.0194549560546875,0.3398590087890625,-0.942291259765625,121.49008178710938,11.1612548828125,-51.92449951171875,,,,,,,,,,
0,2023-08-26 17:24:32.7410,01:07,10,0,2023-08-26 17:25:10.5420,1693088710.542218,0.0011669971281662583,-0.002796052722260356,-0.006074936594814062,0.02294921875,0.3443756103515625,-0.9425811767578125,121.30795288085938,11.3861083984375,-51.85539245605469,,,,,,,,,,
0,2023-08-26 17:24:32.7410,01:07,10,0,2023-08-26 17:25:10.6420,1693088710.642209,-0.0024652881547808647,-0.003139334265142679,-0.004487692844122648,0.0205841064453125,0.3447418212890625,-0.9416351318359375,121.22157287597656,11.46533203125,-51.90144348144531,,,,,,,,,,
0,2023-08-26 17:24:32.7410,01:07,10,0,2023-08-26 17:25:10.7420,1693088710.74195,-0.002457298804074526,-0.008795888163149357,-0.0022309301421046257,0.02008056640625,0.3452301025390625,-0.94287109375,121.30699157714844,11.314666748046875,-51.70814514160156,,,,,,,,,,
0,2023-08-26 17:24:32.7410,01:07,10,0,2023-08-26 17:25:10.8430,1693088710.8425012,-0.01624501682817936,0.006277070846408606,-0.007936752401292324,0.018829345703125,0.34490966796875,-0.943511962890625,121.44291687011719,11.201095581054688,-52.017730712890625,,,,,,,,,,
0,2023-08-26 17:24:32.7410,01:07,10,0,2023-08-26 17:25:10.9420,1693088710.941885,-0.01185106672346592,0.0019148128340020776,-0.003677825443446636,0.020782470703125,0.3410797119140625,-0.9417266845703125,121.40809631347656,11.225326538085938,-52.016693115234375,,,,,,,,,,
0,2023-08-26 17:24:32.7410,01:07,10,0,2023-08-26 17:25:11.0420,1693088711.042309,-0.004716990981251001,0.005482915788888931,-0.0056831855326890945,0.0218963623046875,0.343963623046875,-0.940521240234375,121.3160400390625,11.375534057617188,-51.8743896484375,,,,,,,,,,
0,2023-08-26 17:24:32.7410,01:07,10,0,2023-08-26 17:25:11.1420,1693088711.1423569,0.002755306428298354,-0.006081860978156328,4.261057711119065e-06,0.0225677490234375,0.3442840576171875,-0.943817138671875,121.37747192382812,11.591400146484375,-51.527069091796875,,,,,,,,,,
0,2023-08-26 17:24:32.7410,01:07,10,0,2023-08-26 17:25:11.2420,1693088711.242465,-0.0008900284301489592,-0.0021486382465809584,-0.003662645351141691,0.0224456787109375,0.3449859619140625,-0.9427337646484375,121.49700927734375,11.234725952148438,-51.88359069824219,,,,,,,,,,
0,2023-08-26 17:24:32.7410,01:07,10,0,2023-08-26 17:25:11.3420,1693088711.342098,0.003509779926389456,-0.005542304366827011,-0.002758502261713147,0.02197265625,0.3462066650390625,-0.9428253173828125,121.7039794921875,11.146575927734375,-51.663848876953125,,,,,,,,,,
0,2023-08-26 17:24:32.7410,01:07,10,0,2023-08-26 17:25:11.4420,1693088711.4421902,-0.007858987897634506,-0.00042743736412376165,-0.008153267204761505,0.0198211669921875,0.341888427734375,-0.94122314453125,121.591064453125,11.28167724609375,-52.27333068847656,,,,,,,,,,
0,2023-08-26 17:24:32.7410,01:07,10,0,2023-08-26 17:25:11.5420,1693088711.542468,0.006947122048586607,-0.010163954459130764,0.00746271014213562,0.0222015380859375,0.338134765625,-0.9432525634765625,121.6864013671875,11.170181274414062,-52.00361633300781,,,,,,,,,,
0,2023-08-26 17:24:32.7410,01:07,10,0,2023-08-26 17:25:11.6420,1693088711.642424,0.010482202284038067,-0.00774793466553092,0.002120941411703825,0.02178955078125,0.3469696044921875,-0.943206787109375,121.63864135742188,11.338836669921875,-52.277008056640625,,,,,,,,,,
0,2023-08-26 17:24:32.7410,01:07,10,0,2023-08-26 17:25:11.7420,1693088711.742352,-0.0013214604696258903,-0.0017885789275169373,-0.00791384931653738,0.0167388916015625,0.344329833984375,-0.941131591796875,121.63946533203125,11.28619384765625,-51.87968444824219,,,,,,,,,,
0,2023-08-26 17:24:32.7410,01:07,10,0,2023-08-26 17:25:11.8420,1693088711.842452,-0.004400340840220451,-0.002028529765084386,-0.006579339504241943,0.0186309814453125,0.340789794921875,-0.9412384033203125,121.52711486816406,11.104568481445312,-51.72816467285156,,,,,,,,,,
0,2023-08-26 17:24:32.7410,01:07,10,0,2023-08-26 17:25:11.9420,1693088711.942097,-0.004400340840220451,-0.002028529765084386,-0.006579339504241943,0.0240631103515625,0.342071533203125,-0.9451141357421875,121.5780029296875,11.17138671875,-51.620391845703125,,,,,,,,,,
0,2023-08-26 17:24:32.7410,01:07,10,0,2023-08-26 17:25:12.0420,1693088712.0420918,0.028128840029239655,-0.011724832467734814,0.009845173917710781,0.023284912109375,0.3461151123046875,-0.9440155029296875,121.2279052734375,11.292831420898438,-51.53242492675781,,,,,,,,,,
0,2023-08-26 17:24:32.7410,01:07,10,0,2023-08-26 17:25:12.1420,1693088712.142127,0.011826565489172935,-0.008851548656821251,0.0017512947088107467,0.0186614990234375,0.3421783447265625,-0.9437255859375,121.23384094238281,11.280853271484375,-52.00935363769531,,,,,,,,,,
0,2023-08-26 17:24:32.7410,01:07,10,0,2023-08-26 17:25:12.2420,1693088712.241867,-0.013159211724996567,-0.009435047395527363,-0.0026873957831412554,0.016448974609375,0.335723876953125,-0.9444427490234375,121.29696655273438,11.132659912109375,-52.10392761230469,,,,,,,,,,
0,2023-08-26 17:24:32.7410,01:07,10,0,2023-08-26 17:25:12.3420,1693088712.3420038,-0.0017238641157746315,-0.0049348375760018826,-0.0014152037911117077,0.0186767578125,0.340728759765625,-0.9427337646484375,121.28631591796875,11.442169189453125,-52.15821838378906,,,,,,,,,,
0,2023-08-26 17:24:32.7410,01:07,10,0,2023-08-26 17:25:12.4420,1693088712.44225,0.042984217405319214,-0.01852521486580372,0.01025609951466322,0.0194549560546875,0.3417205810546875,-0.9430999755859375,121.219970703125,11.170272827148438,-52.243438720703125,,,,,,,,,,
0,2023-08-26 17:24:32.7410,01:07,10,0,2023-08-26 17:25:12.5420,1693088712.542067,0.017048757523298264,-0.006994260009378195,0.00418355967849493,0.019012451171875,0.34088134765625,-0.94464111328125,121.24604797363281,11.314804077148438,-52.14979553222656,,,,,,,,,,
0,2023-08-26 17:24:32.7410,01:07,10,0,2023-08-26 17:25:12.6420,1693088712.642246,0.0009707222343422472,-0.004248540848493576,-0.003870105603709817,0.0222320556640625,0.3451690673828125,-0.9429473876953125,121.40371704101562,11.089019775390625,-51.439910888671875,,,,,,,,,,
0,2023-08-26 17:24:32.7410,01:07,10,0,2023-08-26 17:25:12.7420,1693088712.7422009,-0.011447864584624767,-0.005256014876067638,-0.005607019178569317,0.015350341796875,0.3394622802734375,-0.942535400390625,121.30014038085938,11.188690185546875,-51.8262939453125,,,,,,,,,,
0,2023-08-26 17:24:32.7410,01:07,10,0,2023-08-26 17:25:12.8420,1693088712.842052,-0.017360348254442215,-0.004777710884809494,-0.004203000571578741,0.0189666748046875,0.3418121337890625,-0.9423065185546875,121.56362915039062,11.033065795898438,-51.935882568359375,,,,,,,,,,
0,2023-08-26 17:24:32.7410,01:07,10,0,2023-08-26 17:25:12.9430,1693088712.942913,-0.004431500099599361,-0.00455693481490016,-0.007702927105128765,0.017730712890625,0.3404388427734375,-0.9429931640625,121.49964904785156,11.188690185546875,-52.159576416015625,,,,,,,,,,
0,2023-08-26 17:24:32.7410,01:07,10,0,2023-08-26 17:25:13.0420,1693088713.0419621,0.0065103634260594845,-0.009030512534081936,-0.002724680118262768,0.017730712890625,0.3404388427734375,-0.9429931640625,121.56298828125,10.858367919921875,-52.1143798828125,,,,,,,,,,
0,2023-08-26 17:24:32.7410,01:07,10,0,2023-08-26 17:25:13.1420,1693088713.142245,0.02003336325287819,-0.017848771065473557,0.006120210513472557,0.01910400390625,0.344879150390625,-0.943145751953125,121.37332153320312,10.909255981445312,-51.98316955566406,,,,,,,,,,
0,2023-08-26 17:24:32.7410,01:07,10,0,2023-08-26 17:25:13.2420,1693088713.242033,0.002977414056658745,-0.003525492735207081,-0.0023041670210659504,0.0185089111328125,0.3424224853515625,-0.94512939453125,121.2625732421875,10.898162841796875,-52.37309265136719,,,,,,,,,,
0,2023-08-26 17:24:32.7410,01:07,10,0,2023-08-26 17:25:13.3430,1693088713.3430219,-0.0009499495499767363,3.408846168895252e-05,0.0007017429452389479,0.0213165283203125,0.3419342041015625,-0.9427490234375,121.3865966796875,11.039505004882812,-52.402008056640625,,,,,,,,,,
0,2023-08-26 17:24:32.7410,01:07,10,0,2023-08-26 17:25:13.4420,1693088713.4421659,-0.010759437456727028,0.0005550027708522975,0.0019473034190014005,0.019195556640625,0.34326171875,-0.9452667236328125,121.26776123046875,11.124221801757812,-51.85160827636719,,,,,,,,,,
0,2023-08-26 17:24:32.7410,01:07,10,0,2023-08-26 17:25:13.5420,1693088713.542366,-0.025946378707885742,-0.004129763692617416,-0.011530422605574131,0.018646240234375,0.3409423828125,-0.9443817138671875,121.31474304199219,11.2113037109375,-52.08349609375,,,,,,,,,,
0,2023-08-26 17:24:32.7410,01:07,10,0,2023-08-26 17:25:13.6420,1693088713.642322,-0.007949802093207836,0.0014082795241847634,-0.006746053230017424,0.0145416259765625,0.3347015380859375,-0.941986083984375,121.31358337402344,11.036117553710938,-52.17735290527344,,,,,,,,,,
0,2023-08-26 17:24:32.7410,01:07,10,0,2023-08-26 17:25:13.7410,1693088713.7408729,0.02442464977502823,-0.011671570129692554,0.006527407560497522,0.0194244384765625,0.34576416015625,-0.94342041015625,121.06887817382812,11.126708984375,-51.74049377441406,,,,,,,,,,
0,2023-08-26 17:24:32.7410,01:07,10,0,2023-08-26 17:25:13.8430,1693088713.842689,0.0004982774262316525,-0.008125037886202335,-0.006810501683503389,0.0243988037109375,0.35009765625,-0.947052001953125,121.02784729003906,11.183746337890625,-51.84727478027344,,,,,,,,,,
0,2023-08-26 17:24:32.7410,01:07,10,0,2023-08-26 17:25:13.9420,1693088713.9421558,-0.014259896241128445,0.002432531211525202,-0.004862399306148291,0.0142822265625,0.335357666015625,-0.943206787109375,121.11720275878906,11.340911865234375,-51.897857666015625,,,,,,,,,,
0,2023-08-26 17:24:32.7410,01:07,10,0,2023-08-26 17:25:14.0420,1693088714.0423388,-0.0005632585380226374,-5.4861116950633004e-05,0.001287904684431851,0.0162200927734375,0.3355255126953125,-0.9428863525390625,121.284912109375,11.1732177734375,-51.86534118652344,,,,,,,,,,
0,2023-08-26 17:24:32.7410,01:07,10,0,2023-08-26 17:25:14.1420,1693088714.141839,0.002942526713013649,0.00401711231097579,-0.003129746997728944,0.019073486328125,0.343505859375,-0.9433441162109375,121.201904296875,11.031173706054688,-52.23490905761719,,,,,,,,,,
0,2023-08-26 17:24:32.7410,01:07,10,0,2023-08-26 17:25:14.2420,1693088714.2420669,0.005409945268183947,-0.0020791299175471067,-0.0023968450259417295,0.0184783935546875,0.3455352783203125,-0.94342041015625,121.48417663574219,11.010330200195312,-51.86817932128906,,,,,,,,,,
0,2023-08-26 17:24:32.7410,01:07,10,0,2023-08-26 17:25:14.3420,1693088714.3424659,-0.012146944180130959,-0.006381466519087553,-0.004285292699933052,0.018585205078125,0.3413848876953125,-0.9427490234375,121.33137512207031,11.23944091796875,-52.13453674316406,,,,,,,,,,
0,2023-08-26 17:24:32.7410,01:07,10,0,2023-08-26 17:25:14.4420,1693088714.4421968,-0.00219524372369051,-0.004298874642699957,-0.0023728765081614256,0.02032470703125,0.3409576416015625,-0.9456787109375,121.55160522460938,11.355255126953125,-52.132659912109375,,,,,,,,,,
0,2023-08-26 17:24:32.7410,01:07,10,0,2023-08-26 17:25:14.5420,1693088714.542095,-0.011094463057816029,-0.002286856295540929,-0.0011438276851549745,0.0219268798828125,0.3407745361328125,-0.945404052734375,121.37876892089844,11.334518432617188,-52.06646728515625,,,,,,,,,,
0,2023-08-26 17:24:32.7410,01:07,10,0,2023-08-26 17:25:14.6420,1693088714.642034,-0.001055943313986063,0.0027366643771529198,0.003326288191601634,0.0167388916015625,0.34027099609375,-0.944732666015625,121.52128601074219,11.343765258789062,-52.20635986328125,,,,,,,,,,
0,2023-08-26 17:24:32.7410,01:07,10,0,2023-08-26 17:25:14.7390,1693088714.739223,-0.010010023601353168,0.0014210627414286137,-0.005853627808392048,0.0197906494140625,0.34686279296875,-0.9431915283203125,121.48457336425781,11.258575439453125,-51.92955017089844,,,,,,,,,,
0,2023-08-26 17:24:32.7410,01:07,10,0,2023-08-26 17:25:14.8380,1693088714.837984,0.016888169571757317,0.005375324282795191,0.006977215874940157,0.0192413330078125,0.33917236328125,-0.9451904296875,122.25436401367188,10.230377197265625,-47.558502197265625,,,,,,,,,,
0,2023-08-26 17:24:32.7410,01:07,10,0,2023-08-26 17:25:14.9380,1693088714.938136,-0.028747757896780968,0.005218463949859142,4.9801110435510054e-05,0.0275726318359375,0.342864990234375,-0.9430084228515625,121.96414184570312,10.408096313476562,-49.211669921875,,,,,,,,,,
0,2023-08-26 17:24:32.7410,01:07,10,0,2023-08-26 17:25:15.0400,1693088715.0404902,-0.013220996595919132,-0.006536462344229221,0.008287757635116577,0.023468017578125,0.34271240234375,-0.9450836181640625,121.54032897949219,10.97344970703125,-51.59321594238281,,,,,,,,,,
0,2023-08-26 17:24:32.7410,01:07,10,0,2023-08-26 17:25:15.1410,1693088715.1408858,0.004357730504125357,0.009661948308348656,0.005028847139328718,0.029327392578125,0.3389129638671875,-0.9355010986328125,121.67559814453125,11.063308715820312,-51.47843933105469,,,,,,,,,,
0,2023-08-26 17:24:32.7410,01:07,10,0,2023-08-26 17:25:15.2400,1693088715.240305,-0.006779875606298447,0.02707449346780777,0.023734889924526215,0.0141143798828125,0.354583740234375,-0.93585205078125,121.69609069824219,10.894912719726562,-50.4161376953125,,,,,,,,,,
0,2023-08-26 17:24:32.7410,01:07,10,0,2023-08-26 17:25:15.3380,1693088715.338301,-0.08365574479103088,0.03334996849298477,0.026608973741531372,0.0147552490234375,0.363433837890625,-0.9431915283203125,122.019287109375,10.864578247070312,-49.70619201660156,,,,,,,,,,
0,2023-08-26 17:24:32.7410,01:07,10,0,2023-08-26 17:25:15.4430,1693088715.442924,-0.1769782453775406,0.0753064751625061,4.1545314161339775e-05,0.039306640625,0.3351593017578125,-0.9365997314453125,122.26092529296875,11.677886962890625,-50.68263244628906,,,,,,,,,,
0,2023-08-26 17:24:32.7410,01:07,10,0,2023-08-26 17:25:15.5390,1693088715.539384,-0.1924794316291809,0.10546064376831055,0.10872887820005417,0.0258331298828125,0.3710479736328125,-0.9334716796875,122.75674438476562,12.535964965820312,-50.24577331542969,,,,,,,,,,
0,2023-08-26 17:24:32.7410,01:07,10,0,2023-08-26 17:25:15.6420,1693088715.6424398,-0.3682003915309906,0.12823040783405304,0.18097591400146484,0.051177978515625,0.3790435791015625,-0.9318084716796875,123.77909851074219,13.52972412109375,-49.35302734375,,,,,,,,,,
0,2023-08-26 17:24:32.7410,01:07,10,0,2023-08-26 17:25:15.7400,1693088715.74024,-0.6058592796325684,0.1874852031469345,0.255197674036026,0.080535888671875,0.4098663330078125,-0.9061737060546875,125.17147827148438,15.606094360351562,-48.13087463378906,,,,,,,,,,
0,2023-08-26 17:24:32.7410,01:07,10,0,2023-08-26 17:25:15.8420,1693088715.842184,-0.8480900526046753,0.27221474051475525,0.30821242928504944,0.112274169921875,0.46435546875,-0.865386962890625,127.37954711914062,18.275146484375,-45.64076232910156,,,,,,,,,,
0,2023-08-26 17:24:32.7410,01:07,10,0,2023-08-26 17:25:15.9420,1693088715.942274,-0.972372829914093,0.26139697432518005,0.34790924191474915,0.1648712158203125,0.60150146484375,-0.7972259521484375,129.79721069335938,21.300979614257812,-42.971588134765625,,,,,,,,,,
0,2023-08-26 17:24:32.7410,01:07,10,0,2023-08-26 17:25:16.0420,1693088716.042095,-0.5748978853225708,0.07440445572137833,0.1727033257484436,0.213531494140625,0.6710205078125,-0.703369140625,130.96664428710938,23.234786987304688,-41.757537841796875,,,,,,,,,,
0,2023-08-26 17:24:32.7410,01:07,10,0,2023-08-26 17:25:16.1420,1693088716.1423879,-0.4871422350406647,0.014432468451559544,0.03401708975434303,0.1640777587890625,0.6922607421875,-0.697784423828125,131.02487182617188,25.662338256835938,-40.68266296386719,,,,,,,,,,
0,2023-08-26 17:24:32.7410,01:07,10,0,2023-08-26 17:25:16.2420,1693088716.241642,-0.39363011717796326,0.06392944604158401,-0.01091762911528349,0.2014007568359375,0.6996307373046875,-0.6685791015625,131.0475311279297,28.093917846679688,-40.67439270019531,,,,,,,,,,
0,2023-08-26 17:24:32.7410,01:07,10,0,2023-08-26 17:25:16.3400,1693088716.340221,-0.42916813492774963,0.025676067918539047,-0.1839277595281601,0.1579742431640625,0.8096466064453125,-0.60589599609375,131.1332550048828,30.283981323242188,-39.44606018066406,,,,,,,,,,
0,2023-08-26 17:24:32.7410,01:07,10,0,2023-08-26 17:25:16.4400,1693088716.440341,-0.2771727442741394,-0.03437022492289543,-0.07426517456769943,0.224700927734375,0.71136474609375,-0.5926361083984375,131.1705780029297,31.861434936523438,-38.29505920410156,,,,,,,,,,
0,2023-08-26 17:24:32.7410,01:07,10,0,2023-08-26 17:25:16.5400,1693088716.540096,-0.17542454600334167,-0.034569960087537766,-0.03141837567090988,0.2260284423828125,0.7765350341796875,-0.5819854736328125,131.0439453125,33.36125183105469,-38.217193603515625,,,,,,,,,,
0,2023-08-26 17:24:32.7410,01:07,10,0,2023-08-26 17:25:16.6420,1693088716.641839,-0.3972828984260559,0.023837953805923462,0.027363181114196777,0.22601318359375,0.8597564697265625,-0.5788116455078125,131.1714324951172,34.57118225097656,-37.353668212890625,,,,,,,,,,
0,2023-08-26 17:24:32.7410,01:07,10,0,2023-08-26 17:25:16.7420,1693088716.742173,-0.14041303098201752,0.03556172177195549,0.0016373114194720984,0.19219970703125,0.78814697265625,-0.569122314453125,130.9818115234375,35.05574035644531,-37.25634765625,,,,,,,,,,
0,2023-08-26 17:24:32.7410,01:07,10,0,2023-08-26 17:25:16.8420,1693088716.842013,-0.377359002828598,0.05971526354551315,-0.04084303602576256,0.2487640380859375,0.83544921875,-0.527740478515625,130.9896697998047,36.39457702636719,-36.01405334472656,,,,,,,,,,
0,2023-08-26 17:24:32.7410,01:07,10,0,2023-08-26 17:25:16.9420,1693088716.941975,-0.42527592182159424,0.020730312913656235,-0.02161181904375553,0.1962432861328125,0.8152008056640625,-0.5068206787109375,131.33892822265625,38.135406494140625,-34.77687072753906,,,,,,,,,,
0,2023-08-26 17:24:32.7410,01:07,10,0,2023-08-26 17:25:17.0420,1693088717.042155,-0.2298760712146759,-0.0594572015106678,0.005419266410171986,0.2053375244140625,0.8035736083984375,-0.47198486328125,131.0220947265625,40.07362365722656,-33.73919677734375,,,,,,,,,,
0,2023-08-26 17:24:32.7410,01:07,10,0,2023-08-26 17:25:17.1420,1693088717.1421928,-0.23275335133075714,0.025230254977941513,0.018914569169282913,0.224517822265625,0.944061279296875,-0.4300079345703125,131.53521728515625,41.26878356933594,-32.999542236328125,,,,,,,,,,
0,2023-08-26 17:24:32.7410,01:07,10,0,2023-08-26 17:25:17.2420,1693088717.242037,-0.5389638543128967,0.08128047734498978,0.06132407858967781,0.2027587890625,0.9261322021484375,-0.3735504150390625,132.54278564453125,41.96363830566406,-30.913650512695312,,,,,,,,,,
0,2023-08-26 17:24:32.7410,01:07,10,0,2023-08-26 17:25:17.3420,1693088717.341745,-0.2826370298862457,0.05648697912693024,0.07959415763616562,0.2032623291015625,0.92095947265625,-0.34710693359375,133.15011596679688,42.43519592285156,-30.073593139648438,,,,,,,,,,
0,2023-08-26 17:24:32.7410,01:07,10,0,2023-08-26 17:25:17.4420,1693088717.441865,-0.19057686626911163,0.09365005791187286,0.06106708198785782,0.208251953125,0.8957061767578125,-0.372222900390625,133.6863555908203,42.701171875,-28.934677124023438,,,,,,,,,,
