SessionID,SessionDate,SessionDuration,SessionFrequency,RecordID,Timestamp,timeIntervalSince1970,GyroX,GyroY,GyroZ,AccX,AccY,AccZ,MagX,MagY,MagZ,WatchTimestamp,WatchtImeIntervalSince1970,WatchGyroX,WatchGyroY,WatchGyroZ,WatchAccX,WatchAccY,WatchAccZ
0,2023-09-09 15:31:43.0990,01:31,10,1,2023-09-09 15:31:43.1980,1694291503.19797,0.0004844290087930858,-0.0038490667939186096,-0.004192880820482969,0.0138397216796875,0.00311279296875,-1.0012054443359375,105.190673828125,-27.11175537109375,-38.44438171386719,2023-09-09 15:31:42.8130,1694291502.8130589,-0.021766625344753265,-0.006277614273130894,-0.007183488458395004,-0.3141785264015198,-0.014297486282885075,-0.9443206787109375,
0,2023-09-09 15:31:43.0990,01:31,10,1,2023-09-09 15:31:43.2970,1694291503.2970839,-0.0025798040442168713,-0.0029854036401957273,-0.0008548747282475233,0.0146636962890625,0.0040435791015625,-1.00213623046875,105.06857299804688,-26.979019165039062,-38.88850402832031,2023-09-09 15:31:42.9110,1694291502.9107451,-0.01713971607387066,0.014045633375644684,0.006323697976768017,-0.3141937553882599,-0.005508430302143097,-0.9503021240234375,
0,2023-09-09 15:31:43.0990,01:31,10,1,2023-09-09 15:31:43.3970,1694291503.397462,-0.0006173207075335085,-0.004850681405514479,-0.005358546506613493,0.01409912109375,0.003265380859375,-1.0007781982421875,105.00120544433594,-26.608413696289062,-39.394622802734375,2023-09-09 15:31:43.0110,1694291503.0114942,-0.04960398003458977,0.039707984775304794,-0.043015990406274796,-0.2804718613624573,-0.08106995583511889,-0.9391937255859375,
0,2023-09-09 15:31:43.0990,01:31,10,1,2023-09-09 15:31:43.4970,1694291503.4973202,-0.0022948458790779114,-0.004829376470297575,-0.0036517265252768993,0.01409912109375,0.003265380859375,-1.0007781982421875,105.15902709960938,-27.19775390625,-38.49006652832031,2023-09-09 15:31:43.1110,1694291503.110642,0.11836718022823334,0.062065489590168,0.002030848991125822,-0.2989502549171448,0.025360102066770196,-0.9460296630859375,
0,2023-09-09 15:31:43.0990,01:31,10,1,2023-09-09 15:31:43.5970,1694291503.5969791,-0.00045859633246436715,-0.004670385736972094,-0.0007536745979450643,0.0143890380859375,0.00347900390625,-1.000518798828125,105.08810424804688,-27.151840209960938,-38.59492492675781,2023-09-09 15:31:43.2110,1694291503.210954,-0.04730794206261635,-0.004076245240867138,0.020840423181653023,-0.2892303764820099,0.012969978124601766,-0.955108642578125,
0,2023-09-09 15:31:43.0990,01:31,10,1,2023-09-09 15:31:43.6970,1694291503.697187,-0.0007174555794335902,-0.0029979203827679157,-0.0007147924043238163,0.013946533203125,0.0033416748046875,-1.00164794921875,105.30882263183594,-27.226837158203125,-37.905517578125,2023-09-09 15:31:43.3100,1694291503.310309,0.07681567966938019,0.004724303260445595,0.014618712477385998,-0.3161163628101349,-0.000518811633810401,-0.94036865234375,
0,2023-09-09 15:31:43.0990,01:31,10,1,2023-09-09 15:31:43.7970,1694291503.7970219,0.002573678968474269,-0.004591822158545256,-0.0022333269007503986,0.013763427734375,0.0036773681640625,-1.00006103515625,105.16383361816406,-26.794281005859375,-37.96275329589844,2023-09-09 15:31:43.4100,1694291503.410057,0.020062381401658058,0.01967981643974781,-0.016490470618009567,-0.2976227402687073,0.04707337310537696,-0.94970703125,
0,2023-09-09 15:31:43.0990,01:31,10,1,2023-09-09 15:31:43.8970,1694291503.897218,9.77380113909021e-05,-0.0036067189648747444,-0.0046727824956178665,0.01397705078125,0.0034637451171875,-1.001434326171875,105.12796020507812,-26.80914306640625,-38.70892333984375,2023-09-09 15:31:43.5100,1694291503.509937,-0.09800080955028534,0.04848656430840492,-0.01747121475636959,-0.3038178086280823,0.038101205602288246,-0.955352783203125,
0,2023-09-09 15:31:43.0990,01:31,10,1,2023-09-09 15:31:43.9980,1694291503.9982638,-0.0008157262345775962,-0.004424309358000755,-0.003178216516971588,0.0145111083984375,0.0041961669921875,-1.00048828125,104.96101379394531,-26.745620727539062,-38.70475769042969,2023-09-09 15:31:43.6100,1694291503.609787,-0.6796396970748901,0.29684218764305115,0.08418919891119003,-0.2929382622241974,-0.001052848994731903,-0.9568328857421875,
0,2023-09-09 15:31:43.0990,01:31,10,1,2023-09-09 15:31:44.1010,1694291504.100693,-0.00031558459158986807,-0.0031108383554965258,-0.0007366303470917046,0.0145263671875,0.003509521484375,-1.0007171630859375,105.07080078125,-26.910690307617188,-39.019927978515625,2023-09-09 15:31:43.7100,1694291503.7097359,-0.27082425355911255,0.03981877490878105,0.08921382576227188,-0.2495117485523224,0.022628799080848694,-0.9627532958984375,
0,2023-09-09 15:31:43.0990,01:31,10,1,2023-09-09 15:31:44.2000,1694291504.200327,0.00018855179951060563,-0.003626160090789199,-0.0036306874826550484,0.0140838623046875,0.004302978515625,-1.0005950927734375,105.17054748535156,-26.755889892578125,-39.21183776855469,2023-09-09 15:31:43.8100,1694291503.809558,0.21525689959526062,-0.044553495943546295,0.01096179336309433,-0.2710418701171875,0.0703582838177681,-0.9592742323875427,
0,2023-09-09 15:31:43.0990,01:31,10,1,2023-09-09 15:31:44.3000,1694291504.299886,0.0007811051327735186,-0.00509915454313159,-0.0011427623685449362,0.01385498046875,0.003326416015625,-1.000762939453125,105.07929992675781,-26.649703979492188,-39.02662658691406,2023-09-09 15:31:43.9090,1694291503.909429,-0.22093291580677032,0.08302869647741318,0.0014469841262325644,-0.2780151665210724,0.10911562293767929,-0.9637908935546875,
0,2023-09-09 15:31:43.0990,01:31,10,1,2023-09-09 15:31:44.4000,1694291504.4003959,-0.0025691515766084194,-0.005474926438182592,-0.0024501082953065634,0.0146331787109375,0.0035400390625,-1.0010986328125,105.06938171386719,-26.855361938476562,-38.987640380859375,2023-09-09 15:31:44.0090,1694291504.009334,-0.23603489995002747,0.07967923581600189,-0.033688634634017944,-0.2693023979663849,0.1070556715130806,-0.9561920166015625,
0,2023-09-09 15:31:43.0990,01:31,10,1,2023-09-09 15:31:44.5000,1694291504.500438,-0.0010226538870483637,-0.0057444386184215546,-0.0012958941515535116,0.0145111083984375,0.0041046142578125,-1.0007171630859375,104.96832275390625,-26.580902099609375,-39.133453369140625,2023-09-09 15:31:44.1090,1694291504.109085,-0.14534828066825867,0.06473304331302643,0.004070530645549297,-0.2462921291589737,0.11424257606267929,-0.9290770888328552,
0,2023-09-09 15:31:43.0990,01:31,10,1,2023-09-09 15:31:44.6000,1694291504.6004062,-0.0017150756902992725,-0.005357214715331793,-0.002180862706154585,0.013641357421875,0.003448486328125,-1.0005950927734375,104.89903259277344,-26.378280639648438,-39.3123779296875,2023-09-09 15:31:44.2090,1694291504.209021,-0.10295841842889786,0.05498307943344116,0.018331458792090416,-0.2326660454273224,0.1836090236902237,-0.9643554091453552,
0,2023-09-09 15:31:43.0990,01:31,10,1,2023-09-09 15:31:44.7000,1694291504.700224,-0.0005824333056807518,-0.0035148400347679853,-0.0007632619817741215,0.0139923095703125,0.003692626953125,-1.0010986328125,105.11099243164062,-26.948028564453125,-39.06913757324219,2023-09-09 15:31:44.3090,1694291504.3087049,-0.034472834318876266,0.007885076105594635,0.0005703049246221781,-0.23384098708629608,0.1375732719898224,-0.9609374403953552,
0,2023-09-09 15:31:43.0990,01:31,10,1,2023-09-09 15:31:44.8000,1694291504.800349,-0.0009805759182199836,-0.0028421254828572273,-0.005160140804946423,0.01470947265625,0.0045013427734375,-1.0011138916015625,105.14498901367188,-26.844818115234375,-39.205169677734375,2023-09-09 15:31:44.4090,1694291504.408539,-0.0034682461991906166,-0.029634736478328705,-0.0015023334417492151,-0.2604675590991974,0.1329040676355362,-0.9676666259765625,
0,2023-09-09 15:31:43.0990,01:31,10,1,2023-09-09 15:31:44.9000,1694291504.900409,0.0012769857421517372,-0.005248557776212692,-0.0011536814272403717,0.014007568359375,0.003875732421875,-1.00030517578125,104.95536804199219,-26.6549072265625,-39.56614685058594,2023-09-09 15:31:44.5090,1694291504.508528,-0.26021355390548706,0.053128454834222794,0.005763336084783077,-0.2576752156019211,0.12165835499763489,-0.9569854736328125,
0,2023-09-09 15:31:43.0990,01:31,10,1,2023-09-09 15:31:45.0000,1694291505.0004668,0.0004697816038969904,-0.002159823663532734,-0.004111388232558966,0.014251708984375,0.004058837890625,-1.00030517578125,105.14335632324219,-26.856735229492188,-39.44026184082031,2023-09-09 15:31:44.6080,1694291504.608245,-0.02497180737555027,0.04188818484544754,0.02779490314424038,-0.2408600151538849,0.1847534477710724,-0.959503173828125,
0,2023-09-09 15:31:43.0990,01:31,10,1,2023-09-09 15:31:45.1000,1694291505.10028,-0.00213612150400877,-0.002621349412947893,0.00010226538870483637,0.014373779296875,0.003662109375,-1.0005340576171875,105.00289916992188,-26.899261474609375,-39.441619873046875,2023-09-09 15:31:44.7080,1694291504.708156,-0.22657455503940582,0.067101389169693,0.0421183817088604,-0.2269592434167862,0.1780853420495987,-0.9439238905906677,
0,2023-09-09 15:31:43.0990,01:31,10,1,2023-09-09 15:31:45.2000,1694291505.200471,0.0011712582781910896,-0.00458676228299737,-0.0019262643763795495,0.0145111083984375,0.002716064453125,-1.0011444091796875,104.81027221679688,-26.456268310546875,-40.255035400390625,2023-09-09 15:31:44.8080,1694291504.8079572,0.13844461739063263,-0.04655392840504646,-0.014457248151302338,-0.2204742431640625,0.1736450493335724,-0.9550170302391052,
0,2023-09-09 15:31:43.0990,01:31,10,1,2023-09-09 15:31:45.3000,1694291505.300375,0.00040746363811194897,-0.003512975759804249,-0.0010908307740464807,0.0140838623046875,0.0039215087890625,-1.00054931640625,104.85263061523438,-26.587570190429688,-40.12872314453125,2023-09-09 15:31:44.9080,1694291504.907716,0.08977022022008896,-0.010728422552347183,-0.031048309057950974,-0.24588017165660858,0.1612091362476349,-0.9550475478172302,
0,2023-09-09 15:31:43.0990,01:31,10,1,2023-09-09 15:31:45.3990,1694291505.399024,-0.002386192325502634,-0.004018709994852543,-0.002892725635319948,0.014556884765625,0.0035552978515625,-1.000579833984375,104.97480773925781,-26.562896728515625,-39.97050476074219,2023-09-09 15:31:45.0080,1694291505.007582,-0.06245313584804535,0.009424782358109951,-0.007976277731359005,-0.24024967849254608,0.1695099174976349,-0.9586029052734375,
0,2023-09-09 15:31:43.0990,01:31,10,1,2023-09-09 15:31:45.5000,1694291505.5004082,0.00088976213010028,-0.005184642039239407,-0.002010952914133668,0.0147857666015625,0.0037841796875,-1.0014495849609375,104.9361572265625,-26.51806640625,-39.79296875,2023-09-09 15:31:45.1070,1694291505.1073918,0.03592037409543991,-0.002025878056883812,-0.033724814653396606,-0.2347107231616974,0.1643219143152237,-0.9571380019187927,
0,2023-09-09 15:31:43.0990,01:31,10,1,2023-09-09 15:31:45.6000,1694291505.600291,-0.0011241203173995018,-0.00401684595271945,-0.0014008227735757828,0.01422119140625,0.0031890869140625,-1.001922607421875,104.8104248046875,-26.385330200195312,-40.06678771972656,2023-09-09 15:31:45.2070,1694291505.207128,0.027940742671489716,-0.017103897407650948,-0.0345795601606369,-0.24081425368785858,0.1470642387866974,-0.953948974609375,
0,2023-09-09 15:31:43.0990,01:31,10,1,2023-09-09 15:31:45.6980,1694291505.6983871,9.134642459684983e-05,-0.001755023142322898,-0.0018338527297601104,0.0139312744140625,0.003753662109375,-1.000701904296875,104.88145446777344,-26.538467407226562,-40.03977966308594,2023-09-09 15:31:45.3070,1694291505.3071241,-0.0013977715279906988,-0.01611972600221634,-0.007464551366865635,-0.24328617751598358,0.1551361382007599,-0.95794677734375,
0,2023-09-09 15:31:43.0990,01:31,10,1,2023-09-09 15:31:45.8010,1694291505.800898,-0.0009954896522685885,-0.0028642297256737947,-0.003108175238594413,0.01409912109375,0.0033416748046875,-1.0014495849609375,104.79643249511719,-26.578811645507812,-40.259674072265625,2023-09-09 15:31:45.4070,1694291505.4070811,-0.038952868431806564,0.005640164017677307,0.0035129981115460396,-0.2418670952320099,0.1555481255054474,-0.9528350830078125,
0,2023-09-09 15:31:43.0990,01:31,10,1,2023-09-09 15:31:45.9000,1694291505.900237,0.0011446266435086727,-0.006618221756070852,-0.0023409186396747828,0.014434814453125,0.0047760009765625,-1.001129150390625,104.87944030761719,-26.499908447265625,-40.02449035644531,2023-09-09 15:31:45.5070,1694291505.506716,0.0058169979602098465,0.004178089089691639,0.007768463343381882,-0.2377167046070099,0.17073063552379608,-0.9553985595703125,
0,2023-09-09 15:31:43.0990,01:31,10,1,2023-09-09 15:31:46.0010,1694291506.000523,-0.0012096078135073185,-0.004006992094218731,-0.002576608443632722,0.0141448974609375,0.0035858154296875,-1.001373291015625,104.90093994140625,-26.369491577148438,-40.18829345703125,2023-09-09 15:31:45.6070,1694291505.606738,-0.026310844346880913,0.005948557518422604,0.019081171602010727,-0.2409515529870987,0.1679229885339737,-0.9549102187156677,
0,2023-09-09 15:31:43.0990,01:31,10,1,2023-09-09 15:31:46.0990,1694291506.0991879,-0.0014229270163923502,-0.0031068436801433563,-0.0012508867075666785,0.01312255859375,0.0039825439453125,-1.001312255859375,104.71499633789062,-26.40283203125,-40.13459777832031,2023-09-09 15:31:45.7060,1694291505.706454,0.030795052647590637,-0.01612851396203041,-0.006022450048476458,-0.24136357009410858,0.1582794487476349,-0.9529876708984375,
0,2023-09-09 15:31:43.0990,01:31,10,1,2023-09-09 15:31:46.2000,1694291506.200392,-0.0002735066518653184,-0.0032796829473227262,-0.0004548678989522159,0.0147552490234375,0.003936767578125,-1.0001373291015625,104.86634826660156,-26.613296508789062,-39.605682373046875,2023-09-09 15:31:45.8060,1694291505.8062758,0.0018660654313862324,0.014901307411491871,0.025607846677303314,-0.2411041557788849,0.1634979397058487,-0.9524993896484375,
0,2023-09-09 15:31:43.0990,01:31,10,1,2023-09-09 15:31:46.3000,1694291506.300458,-0.001401089015416801,-0.004102599807083607,-0.002350239548832178,0.0142059326171875,0.00335693359375,-1.000762939453125,104.88642883300781,-26.563140869140625,-39.722808837890625,2023-09-09 15:31:45.9060,1694291505.906155,0.005111526697874069,-0.0017660874873399734,0.01139595452696085,-0.2372131645679474,0.1757660210132599,-0.9529876708984375,
0,2023-09-09 15:31:43.0990,01:31,10,1,2023-09-09 15:31:46.4000,1694291506.400351,0.0003211772127542645,-0.004230963997542858,-0.0016700683627277613,0.014556884765625,0.003997802734375,-1.000579833984375,105.14717102050781,-26.634979248046875,-39.99095153808594,2023-09-09 15:31:46.0060,1694291506.0060282,-0.01288631558418274,-0.0010591503232717514,0.008533289656043053,-0.2411956936120987,0.1705322265625,-0.9535674452781677,
0,2023-09-09 15:31:43.0990,01:31,10,1,2023-09-09 15:31:46.5000,1694291506.500252,-0.0014415690675377846,-0.003192597534507513,-0.0036932716611772776,0.0142974853515625,0.00360107421875,-1.0013580322265625,105.01663208007812,-26.413330078125,-40.05397033691406,2023-09-09 15:31:46.1060,1694291506.106052,0.019411703571677208,0.005208066664636135,0.008298931643366814,-0.2397156059741974,0.1660766899585724,-0.955413818359375,
0,2023-09-09 15:31:43.0990,01:31,10,1,2023-09-09 15:31:46.6000,1694291506.60036,0.0006519418093375862,-0.00478436890989542,-0.003059173235669732,0.0140838623046875,0.004119873046875,-1.000885009765625,104.90713500976562,-26.459579467773438,-39.87162780761719,2023-09-09 15:31:46.2060,1694291506.205554,-0.002930687041953206,0.001958610489964485,0.008412415161728859,-0.23976139724254608,0.1879120171070099,-0.954559326171875,
0,2023-09-09 15:31:43.0990,01:31,10,1,2023-09-09 15:31:46.6990,1694291506.699255,0.00046631949953734875,-0.0037265613209456205,-0.0006993460701778531,0.01361083984375,0.003631591796875,-1.0005645751953125,105.07347106933594,-26.631256103515625,-39.55854797363281,2023-09-09 15:31:46.3190,1694291506.31925,-0.034403856843709946,0.006756162270903587,0.0005086526507511735,-0.2396240532398224,0.16322331130504608,-0.9569701552391052,
0,2023-09-09 15:31:43.0990,01:31,10,1,2023-09-09 15:31:46.8010,1694291506.800537,0.000716922979336232,-0.004199272487312555,-0.0027060380671173334,0.0140228271484375,0.0030364990234375,-1.0006866455078125,105.01679992675781,-26.66619873046875,-39.72114562988281,2023-09-09 15:31:46.4050,1694291506.4053001,-0.021224141120910645,0.0035073719918727875,-0.0020437208004295826,-0.2379150688648224,0.1560211330652237,-0.9576415419578552,
0,2023-09-09 15:31:43.0990,01:31,10,1,2023-09-09 15:31:46.9010,1694291506.900516,0.000437291048001498,-0.0029313412960618734,-0.0019052254501730204,0.0145416259765625,0.0037994384765625,-1.000335693359375,104.92965698242188,-26.4796142578125,-39.34248352050781,2023-09-09 15:31:46.5050,1694291506.505269,-0.01316514890640974,-0.0020703524351119995,-0.0016138867940753698,-0.23822025954723358,0.15548710525035858,-0.95452880859375,
0,2023-09-09 15:31:43.0990,01:31,10,1,2023-09-09 15:31:47.0000,1694291507.000156,-0.000595216522924602,-0.0029611687641590834,-0.0029941920656710863,0.0138397216796875,0.0043487548828125,-1.0015106201171875,105.00617980957031,-26.332748413085938,-39.79571533203125,2023-09-09 15:31:46.6050,1694291506.604961,0.01119738258421421,-0.018974367529153824,-0.01272496022284031,-0.24133305251598358,0.1614532768726349,-0.9537200927734375,
0,2023-09-09 15:31:43.0990,01:31,10,1,2023-09-09 15:31:47.0990,1694291507.0987592,-0.0007829693495295942,-0.0041004689410328865,-0.0012668657582253218,0.01361083984375,0.0028228759765625,-1.0015411376953125,105.05630493164062,-26.621078491210938,-39.6153564453125,2023-09-09 15:31:46.7050,1694291506.7047749,0.0053185876458883286,-0.005878540687263012,-0.001675572246313095,-0.2399597465991974,0.16331486403942108,-0.9560089111328125,
0,2023-09-09 15:31:43.0990,01:31,10,1,2023-09-09 15:31:47.2000,1694291507.200295,-0.0015121428295969963,-0.005842176266014576,-0.003035204717889428,0.0142059326171875,0.00390625,-1.001251220703125,104.82667541503906,-26.403961181640625,-39.3804931640625,2023-09-09 15:31:46.8050,1694291506.804754,-0.008037697523832321,-0.0024329423904418945,-0.00011163088493049145,-0.2405243217945099,0.16625981032848358,-0.9553375244140625,
0,2023-09-09 15:31:43.0990,01:31,10,1,2023-09-09 15:31:47.3000,1694291507.3002791,-0.0005387574783526361,-0.00236302288249135,-0.002147573046386242,0.0139617919921875,0.004119873046875,-1.0003814697265625,105.0242919921875,-26.637451171875,-39.65684509277344,2023-09-09 15:31:46.9050,1694291506.904516,0.01705620437860489,-0.0024571772664785385,0.005434402264654636,-0.24157719314098358,0.1709289848804474,-0.955169677734375,
0,2023-09-09 15:31:43.0990,01:31,10,1,2023-09-09 15:31:47.4000,1694291507.400414,-0.0012420982820913196,-0.004840561654418707,-0.001425057533197105,0.0142059326171875,0.003204345703125,-1.0015106201171875,104.98072814941406,-26.641159057617188,-39.543182373046875,2023-09-09 15:31:47.0040,1694291507.004216,-0.016528520733118057,0.0022486289963126183,0.0028923482168465853,-0.2441101372241974,0.17204289138317108,-0.95281982421875,
0,2023-09-09 15:31:43.0990,01:31,10,1,2023-09-09 15:31:47.5000,1694291507.500279,-0.0025033713318407536,-0.0031047132797539234,-0.0025989788118749857,0.014007568359375,0.0031585693359375,-1.0015411376953125,105.04905700683594,-26.335342407226562,-39.54093933105469,2023-09-09 15:31:47.1040,1694291507.104176,-0.0032823572400957346,0.005297681782394648,0.002772705629467964,-0.24182133376598358,0.1700134575366974,-0.953521728515625,
0,2023-09-09 15:31:43.0990,01:31,10,1,2023-09-09 15:31:47.6000,1694291507.600103,-0.0025659557431936264,-0.005589708685874939,-0.0008186557097360492,0.014434814453125,0.00341796875,-1.0008087158203125,105.01332092285156,-26.472198486328125,-39.38645935058594,2023-09-09 15:31:47.2040,1694291507.203958,-0.007389884442090988,0.00322174746543169,0.002535484731197357,-0.2402496635913849,0.1708679348230362,-0.9520873427391052,
0,2023-09-09 15:31:43.0990,01:31,10,1,2023-09-09 15:31:47.7010,1694291507.700502,-0.0008194546680897474,-0.0027387947775423527,-0.0027973842807114124,0.0138397216796875,0.0042877197265625,-1.0,105.1180419921875,-26.5306396484375,-39.64793395996094,2023-09-09 15:31:47.3040,1694291507.303787,-0.005413152277469635,-0.0028995275497436523,0.0009363231365568936,-0.2423095852136612,0.1712341457605362,-0.9521942138671875,
0,2023-09-09 15:31:43.0990,01:31,10,1,2023-09-09 15:31:47.7990,1694291507.798534,0.0004649879119824618,-0.004867991898208857,-0.0010599381057545543,0.014373779296875,0.0038299560546875,-1.0006561279296875,104.9832763671875,-26.6630859375,-39.648590087890625,2023-09-09 15:31:47.4040,1694291507.403579,-0.009842654690146446,-0.0024891356006264687,-0.005027359817177057,-0.2393036186695099,0.17271427810192108,-0.9524383544921875,
0,2023-09-09 15:31:43.0990,01:31,10,1,2023-09-09 15:31:47.9010,1694291507.90061,-0.0009017463307827711,-0.0028852687682956457,-0.0024668860714882612,0.0133056640625,0.00421142578125,-1.0007781982421875,105.11587524414062,-26.800460815429688,-39.45269775390625,2023-09-09 15:31:47.5040,1694291507.5037122,-0.028281915932893753,0.0012372932396829128,-0.006678353529423475,-0.2389679104089737,0.1666412651538849,-0.9539947509765625,
0,2023-09-09 15:31:43.0990,01:31,10,1,2023-09-09 15:31:48.0000,1694291508.000155,0.00023542344570159912,-0.005767075344920158,-0.003569967346265912,0.013641357421875,0.004150390625,-1.0006103515625,104.90122985839844,-26.499588012695312,-39.61405944824219,2023-09-09 15:31:47.6030,1694291507.603065,-0.019140683114528656,-0.006602387875318527,-0.0016276352107524872,-0.23800663650035858,0.15815739333629608,-0.9511871337890625,
0,2023-09-09 15:31:43.0990,01:31,10,1,2023-09-09 15:31:48.0990,1694291508.099444,-0.0023824640084058046,-0.0033806166611611843,-0.0018530274974182248,0.01422119140625,0.003570556640625,-1.0013427734375,105.069091796875,-26.670089721679688,-39.762237548828125,2023-09-09 15:31:47.7030,1694291507.703023,-0.013885468244552612,0.0016214540228247643,-0.0008234938140958548,-0.2415619194507599,0.1764374077320099,-0.9525451064109802,
0,2023-09-09 15:31:43.0990,01:31,10,1,2023-09-09 15:31:48.2000,1694291508.200279,-8.81506348378025e-05,-0.0034943337086588144,-0.0007334345718845725,0.0139617919921875,0.0034637451171875,-1.0003204345703125,105.01475524902344,-26.682159423828125,-39.8363037109375,2023-09-09 15:31:47.8030,1694291507.802966,0.0007780311862006783,0.0054548075422644615,0.004189307801425457,-0.2383270561695099,0.18884281814098358,-0.95184326171875,
0,2023-09-09 15:31:43.0990,01:31,10,1,2023-09-09 15:31:48.3000,1694291508.300332,-0.00038695731200277805,-0.0030104373581707478,-0.0009094694978557527,0.01397705078125,0.00408935546875,-1.001495361328125,105.10508728027344,-26.775115966796875,-39.58583068847656,2023-09-09 15:31:47.9030,1694291507.902835,-0.03683199733495712,0.019078340381383896,0.011698390357196331,-0.2378692924976349,0.1794281303882599,-0.948516845703125,
0,2023-09-09 15:31:43.0990,01:31,10,1,2023-09-09 15:31:48.4000,1694291508.400457,0.0005299690528772771,-0.004476773552596569,-0.0020485036075115204,0.014617919921875,0.0040740966796875,-1.0010986328125,104.97500610351562,-26.832000732421875,-39.286407470703125,2023-09-09 15:31:48.0030,1694291508.002526,-0.04694681242108345,0.01146063581109047,0.005553478840738535,-0.23573307693004608,0.1820221245288849,-0.9523162841796875,
0,2023-09-09 15:31:43.0990,01:31,10,1,2023-09-09 15:31:48.5000,1694291508.500229,-0.0010266485624015331,-0.0031992553267627954,-0.00040533312130719423,0.014495849609375,0.00433349609375,-1.0008392333984375,104.95768737792969,-26.802337646484375,-39.47483825683594,2023-09-09 15:31:48.1020,1694291508.102477,-0.04269587621092796,0.015396521426737309,0.006257751490920782,-0.2360382229089737,0.1780700981616974,-0.9499511122703552,
0,2023-09-09 15:31:43.0990,01:31,10,1,2023-09-09 15:31:48.6000,1694291508.6001859,-0.0005944175645709038,-0.0032530513126403093,-0.002296976512297988,0.01397705078125,0.00482177734375,-1.0012054443359375,104.86175537109375,-26.65740966796875,-39.54997253417969,2023-09-09 15:31:48.2020,1694291508.2021918,-0.0630582720041275,0.015302512794733047,0.005886840168386698,-0.2321777641773224,0.1828155815601349,-0.9493865966796875,
0,2023-09-09 15:31:43.0990,01:31,10,1,2023-09-09 15:31:48.7000,1694291508.7000809,0.00031372037483379245,-0.0043308325111866,-0.0016418388113379478,0.0142822265625,0.003326416015625,-1.000762939453125,104.91433715820312,-26.718673706054688,-39.396087646484375,2023-09-09 15:31:48.3020,1694291508.302129,0.020964791998267174,0.008652731776237488,0.006610254757106304,-0.22976689040660858,0.18894962966442108,-0.9512633681297302,
0,2023-09-09 15:31:43.0990,01:31,10,1,2023-09-09 15:31:48.8000,1694291508.800294,-0.0013712616637349129,-0.005150287412106991,-0.0035217641852796078,0.0151519775390625,0.0037384033203125,-1.000396728515625,104.89115905761719,-26.465469360351562,-39.471649169921875,2023-09-09 15:31:48.4020,1694291508.402118,-0.009991459548473358,0.014573871158063412,0.011660772375762463,-0.2302704155445099,0.19108586013317108,-0.95184326171875,
0,2023-09-09 15:31:43.0990,01:31,10,1,2023-09-09 15:31:48.9000,1694291508.900387,-0.0024322650860995054,-0.0019267969764769077,-0.0040852888487279415,0.0137481689453125,0.003692626953125,-1.0010528564453125,104.96075439453125,-26.548568725585938,-39.3037109375,2023-09-09 15:31:48.5020,1694291508.501859,-0.028016066178679466,-0.002026543952524662,0.010087010450661182,-0.2290191799402237,0.19717411696910858,-0.950164794921875,
0,2023-09-09 15:31:43.0990,01:31,10,1,2023-09-09 15:31:49.0000,1694291509.000296,-2.7696874894900247e-05,-0.0049430932849645615,0.0004695153038483113,0.01409912109375,0.003570556640625,-1.0016632080078125,105.07342529296875,-26.732955932617188,-39.35334777832031,2023-09-09 15:31:48.6020,1694291508.601588,-0.01618264429271221,0.009685372933745384,-0.011245009489357471,-0.2360840141773224,0.20504765212535858,-0.94915771484375,
0,2023-09-09 15:31:43.0990,01:31,10,1,2023-09-09 15:31:49.0980,1694291509.098027,-0.0013944311067461967,-0.004722317215055227,-0.003832821501418948,0.01422119140625,0.0030975341796875,-1.0005645751953125,104.96284484863281,-26.792312622070312,-39.36137390136719,2023-09-09 15:31:48.7010,1694291508.701182,-0.07087545096874237,0.049579791724681854,-0.0025797486305236816,-0.2293548882007599,0.1861419975757599,-0.9455108642578125,
0,2023-09-09 15:31:43.0990,01:31,10,1,2023-09-09 15:31:49.2000,1694291509.2000961,-0.0014769891276955605,-0.00509888818487525,-0.003823766717687249,0.0143585205078125,0.003143310546875,-1.001617431640625,105.08659362792969,-26.712356567382812,-39.109100341796875,2023-09-09 15:31:48.8010,1694291508.8012738,0.05568062886595726,0.03350015729665756,0.031750794500112534,-0.2107696831226349,0.17666630446910858,-0.9499053955078125,
0,2023-09-09 15:31:43.0990,01:31,10,1,2023-09-09 15:31:49.3000,1694291509.3001819,4.900216299574822e-05,-0.0038517299108207226,-0.0006641923682764173,0.0144195556640625,0.0041351318359375,-1.0008392333984375,105.02824401855469,-27.062606811523438,-39.35786437988281,2023-09-09 15:31:48.9010,1694291508.901109,0.006082648411393166,0.04181494563817978,0.01647387072443962,-0.2129211723804474,0.2119598686695099,-0.9512786865234375,
0,2023-09-09 15:31:43.0990,01:31,10,1,2023-09-09 15:31:49.4000,1694291509.400048,-0.0017132115317508578,-0.0032144354190677404,-0.0014359764754772186,0.0146484375,0.00360107421875,-1.0008544921875,105.02960205078125,-27.033218383789062,-39.45378112792969,2023-09-09 15:31:49.0010,1694291509.0011601,-0.009227199479937553,0.013881316408514977,0.018540283665060997,-0.2160034328699112,0.2048340141773224,-0.9476776123046875,
0,2023-09-09 15:31:43.0990,01:31,10,1,2023-09-09 15:31:49.5000,1694291509.500135,0.0007171892793849111,-0.004593153949826956,0.00032730249222368,0.0140533447265625,0.004119873046875,-1.0009765625,105.03219604492188,-26.94793701171875,-39.4927978515625,2023-09-09 15:31:49.1010,1694291509.100949,0.012941554188728333,0.08979272097349167,0.06428883224725723,-0.2049408257007599,0.17080692946910858,-0.9569549560546875,
0,2023-09-09 15:31:43.0990,01:31,10,1,2023-09-09 15:31:49.5990,1694291509.599248,-0.00040320257539860904,-0.0028943235520273447,-0.002626942005008459,0.014068603515625,0.0039520263671875,-1.00079345703125,105.06971740722656,-27.0521240234375,-39.62815856933594,2023-09-09 15:31:49.2010,1694291509.200729,-0.0037886244244873524,0.07370736449956894,0.0197432991117239,-0.1855011135339737,0.2206573784351349,-0.9655914306640625,
0,2023-09-09 15:31:43.0990,01:31,10,1,2023-09-09 15:31:49.7010,1694291509.700501,-0.0002769687562249601,-0.0016911072889342904,-0.0015542207984253764,0.0149078369140625,0.0037689208984375,-1.00079345703125,104.87495422363281,-26.589614868164062,-39.753143310546875,2023-09-09 15:31:49.3000,1694291509.300465,-0.2784816324710846,0.1180691048502922,-0.024780791252851486,-0.1544647365808487,0.17214970290660858,-0.9557037353515625,
0,2023-09-09 15:31:43.0990,01:31,10,1,2023-09-09 15:31:49.8000,1694291509.800191,0.00027031084755435586,-0.006620352156460285,-0.0027483822777867317,0.0139007568359375,0.0039215087890625,-1.001922607421875,105.06733703613281,-26.808059692382812,-39.718963623046875,2023-09-09 15:31:49.4000,1694291509.400316,0.27798864245414734,-0.20546954870224,-0.009218011051416397,-0.1656341701745987,0.1654510796070099,-0.949981689453125,
0,2023-09-09 15:31:43.0990,01:31,10,1,2023-09-09 15:31:49.9000,1694291509.900281,-0.0009025452891364694,-0.004275971557945013,-0.004129497334361076,0.01416015625,0.00341796875,-1.0018463134765625,104.96992492675781,-26.778396606445312,-39.75767517089844,2023-09-09 15:31:49.5000,1694291509.5001612,-0.15412819385528564,-0.0641666129231453,-0.02577005699276924,-0.2280731499195099,0.23387150466442108,-0.9603271484375,
0,2023-09-09 15:31:43.0990,01:31,10,1,2023-09-09 15:31:49.9990,1694291509.998841,-0.002130262553691864,-0.004343349486589432,-0.0019470370607450604,0.013946533203125,0.0033416748046875,-1.00140380859375,104.99760437011719,-26.694839477539062,-39.465576171875,2023-09-09 15:31:49.6000,1694291509.600024,-0.22010867297649384,-0.11795634031295776,0.0373314805328846,-0.2002868801355362,0.20507816970348358,-0.9391326904296875,
0,2023-09-09 15:31:43.0990,01:31,10,1,2023-09-09 15:31:50.0980,1694291510.098232,0.00030067088664509356,-0.006022472400218248,-0.0024921861477196217,0.0136566162109375,0.003509521484375,-1.0010528564453125,104.8289794921875,-26.425460815429688,-39.6031494140625,2023-09-09 15:31:49.7000,1694291509.700052,-0.13191209733486176,-0.1354181468486786,0.008134247735142708,-0.2293396145105362,0.2579956352710724,-0.9636077284812927,
0,2023-09-09 15:31:43.0990,01:31,10,1,2023-09-09 15:31:50.2000,1694291510.200177,0.00036724991514347494,-0.0030184267088770866,0.00023222764139063656,0.0139617919921875,0.0039215087890625,-1.001861572265625,104.93690490722656,-26.469940185546875,-39.57733154296875,2023-09-09 15:31:49.8000,1694291509.799645,-0.47215282917022705,-0.03373134508728981,0.12540391087532043,-0.3694000542163849,0.24760442972183228,-0.9119872450828552,
0,2023-09-09 15:31:43.0990,01:31,10,1,2023-09-09 15:31:50.3000,1694291510.300105,0.0009387642494402826,-0.0037859496660530567,-0.0014703312190249562,0.0140533447265625,0.003936767578125,-1.0019989013671875,104.984130859375,-26.809097290039062,-39.501068115234375,2023-09-09 15:31:49.8990,1694291509.8993921,-0.09854848682880402,-0.280561625957489,-0.10455318540334702,-0.3353119194507599,0.2829590439796448,-0.885528564453125,
0,2023-09-09 15:31:43.0990,01:31,10,1,2023-09-09 15:31:50.3980,1694291510.398041,-0.0017504957504570484,-0.006485596299171448,-0.0030858046375215054,0.013458251953125,0.0034942626953125,-1.0008697509765625,104.95285034179688,-26.455718994140625,-39.566680908203125,2023-09-09 15:31:49.9990,1694291509.999433,-0.09313707798719406,-0.313210129737854,-0.21252791583538055,-0.3296661972999573,0.3284302055835724,-0.9213714599609375,
0,2023-09-09 15:31:43.0990,01:31,10,1,2023-09-09 15:31:50.5000,1694291510.500205,-0.0002109223569277674,-0.005852030124515295,-0.001731853699311614,0.01458740234375,0.0040130615234375,-1.001556396484375,105.0640869140625,-26.558441162109375,-39.65766906738281,2023-09-09 15:31:50.0990,1694291510.099407,-0.1214791014790535,-0.49243685603141785,-0.25927552580833435,-0.2622070908546448,0.24989324808120728,-0.8755950927734375,
0,2023-09-09 15:31:43.0990,01:31,10,1,2023-09-09 15:31:50.6000,1694291510.600089,-0.0013393036788329482,-0.0044264402240514755,0.00042557314736768603,0.0142059326171875,0.003814697265625,-1.000640869140625,105.04734802246094,-26.662460327148438,-39.51658630371094,2023-09-09 15:31:50.1990,1694291510.199009,-0.20385539531707764,-0.4999561607837677,-0.22209395468235016,-0.18664559721946716,0.3123627305030823,-0.8514556288719177,
0,2023-09-09 15:31:43.0990,01:31,10,1,2023-09-09 15:31:50.7010,1694291510.700769,0.0011534150689840317,-0.004787831101566553,-0.0033459956757724285,0.013427734375,0.0027923583984375,-1.000396728515625,104.99214172363281,-26.80914306640625,-39.19151306152344,2023-09-09 15:31:50.2990,1694291510.2987251,-0.05431517958641052,-0.4269629120826721,-0.1647423803806305,-0.4051361680030823,0.34449777007102966,-0.9195098876953125,
0,2023-09-09 15:31:43.0990,01:31,10,1,2023-09-09 15:31:50.8000,1694291510.80027,-0.002243446884676814,-0.003896737238392234,-0.003379018744453788,0.0142822265625,0.0036163330078125,-1.001068115234375,105.05900573730469,-26.64483642578125,-39.21235656738281,2023-09-09 15:31:50.3990,1694291510.398885,0.3984667658805847,-0.36445677280426025,-0.12984728813171387,-0.42485055327415466,0.4425202012062073,-0.8678131103515625,
0,2023-09-09 15:31:43.0990,01:31,10,1,2023-09-09 15:31:50.9000,1694291510.900182,0.0005025385180488229,-0.005546565633267164,-9.880327706923708e-05,0.01385498046875,0.004119873046875,-1.001678466796875,105.07624816894531,-26.763641357421875,-39.256134033203125,2023-09-09 15:31:50.4980,1694291510.498415,-0.2164578139781952,-0.4198385775089264,-0.21941958367824554,-0.5133209824562073,0.2845612168312073,-0.7851715087890625,
0,2023-09-09 15:31:43.0990,01:31,10,1,2023-09-09 15:31:51.0000,1694291511.0000591,0.0015313175972551107,-0.004806739278137684,-0.004350806120783091,0.01373291015625,0.0040740966796875,-1.0006561279296875,104.9141845703125,-26.822708129882812,-39.542236328125,2023-09-09 15:31:50.5980,1694291510.598414,-0.012716205790638924,-0.521496057510376,-0.2227889746427536,-0.5548096299171448,0.3724365830421448,-0.8184966444969177,
0,2023-09-09 15:31:43.0990,01:31,10,1,2023-09-09 15:31:51.1000,1694291511.099549,0.0007861651247367263,-0.0019342538435012102,0.0005163869354873896,0.013916015625,0.0035858154296875,-1.0009307861328125,104.98220825195312,-26.6761474609375,-39.2738037109375,2023-09-09 15:31:50.6980,1694291510.6982331,-0.002527151722460985,-0.5931980609893799,-0.3615777790546417,-0.630691647529602,0.3205872178077698,-0.7421721816062927,
0,2023-09-09 15:31:43.0990,01:31,10,1,2023-09-09 15:31:51.2000,1694291511.200117,-0.0010311759542673826,-0.00279019377194345,-0.0023284016642719507,0.0135040283203125,0.0035552978515625,-1.001495361328125,105.13258361816406,-26.563827514648438,-39.240447998046875,2023-09-09 15:31:50.7980,1694291510.798105,-0.07020919770002365,-0.7892543077468872,-0.2908305525779724,-0.590011715888977,0.2154236137866974,-0.708099365234375,
0,2023-09-09 15:31:43.0990,01:31,10,1,2023-09-09 15:31:51.3000,1694291511.299984,-4.207794336252846e-05,-0.004574778024107218,-0.002493784064427018,0.014434814453125,0.00360107421875,-1.001007080078125,105.08747863769531,-26.8267822265625,-39.213226318359375,2023-09-09 15:31:50.8980,1694291510.897661,0.06902340054512024,-0.8661512136459351,-0.2553724944591522,-0.7320557236671448,0.3035583943128586,-0.6368865370750427,
0,2023-09-09 15:31:43.0990,01:31,10,1,2023-09-09 15:31:51.4000,1694291511.400172,-0.0019923108629882336,-0.005891711451113224,-0.001145159243606031,0.01422119140625,0.0040283203125,-1.001373291015625,104.88674926757812,-26.5933837890625,-39.80628967285156,2023-09-09 15:31:50.9970,1694291510.997494,0.025972533971071243,-0.7560943365097046,-0.4657563269138336,-0.7219391465187073,0.2619781643152237,-0.588912844657898,
0,2023-09-09 15:31:43.0990,01:31,10,1,2023-09-09 15:31:51.5000,1694291511.499868,-0.002429868094623089,-0.00415346585214138,-0.0010239854454994202,0.0137481689453125,0.0036468505859375,-1.0006561279296875,104.99862670898438,-26.823226928710938,-39.478179931640625,2023-09-09 15:31:51.0980,1694291511.097577,-0.032538045197725296,-0.7624478340148926,-0.33510929346084595,-0.8597261309623718,0.2113037407398224,-0.4891204237937927,
0,2023-09-09 15:31:43.0990,01:31,10,1,2023-09-09 15:31:51.6000,1694291511.599982,-0.001118527608923614,-0.004063184838742018,-0.0032413334120064974,0.0139923095703125,0.003326416015625,-1.0002899169921875,105.09521484375,-27.003372192382812,-39.628082275390625,2023-09-09 15:31:51.1970,1694291511.197164,0.11917231231927872,-0.7632163166999817,-0.30468448996543884,-0.8668672442436218,0.2667236477136612,-0.47000113129615784,
0,2023-09-09 15:31:43.0990,01:31,10,1,2023-09-09 15:31:51.7000,1694291511.700033,0.00022849922243040055,-0.004429635591804981,-0.0016437029698863626,0.014373779296875,0.00390625,-1.00244140625,104.98225402832031,-26.611846923828125,-39.6270751953125,2023-09-09 15:31:51.2970,1694291511.297024,0.35364165902137756,-0.8244428634643555,-0.36430585384368896,-0.8991853594779968,0.2052612602710724,-0.42495712637901306,
0,2023-09-09 15:31:43.0990,01:31,10,1,2023-09-09 15:31:51.8000,1694291511.8001552,-0.0029704899061471224,-0.004332430195063353,-0.0017571536591276526,0.0136871337890625,0.0038299560546875,-1.0005035400390625,105.11689758300781,-27.01318359375,-39.29258728027344,2023-09-09 15:31:51.4030,1694291511.402885,0.16183476150035858,-0.8080539703369141,-0.3040860593318939,-0.9697267413139343,0.1092376857995987,-0.31283560395240784,
0,2023-09-09 15:31:43.0990,01:31,10,1,2023-09-09 15:31:51.9000,1694291511.8999782,-0.0006530070677399635,-0.00270710326731205,-0.0012551478575915098,0.0145263671875,0.0036163330078125,-1.00152587890625,105.13009643554688,-26.815567016601562,-39.75267028808594,2023-09-09 15:31:51.4970,1694291511.496996,-0.17692245543003082,-0.7055394053459167,-0.40257832407951355,-0.9309388995170593,0.10580448806285858,-0.32159408926963806,
0,2023-09-09 15:31:43.0990,01:31,10,1,2023-09-09 15:31:52.0000,1694291511.999629,0.0006042712484486401,-0.003955326974391937,-0.0019710054621100426,0.0142822265625,0.003143310546875,-1.0007781982421875,105.13009643554688,-26.815567016601562,-39.75267028808594,2023-09-09 15:31:51.5970,1694291511.59659,-0.015793023630976677,-0.7388924360275269,-0.3401825428009033,-0.9704591631889343,0.07724001258611679,-0.22152698040008545,
0,2023-09-09 15:31:43.0990,01:31,10,1,2023-09-09 15:31:52.0980,1694291512.0984302,-0.0011033476330339909,-0.0022863238118588924,-0.0008993495139293373,0.0145416259765625,0.003143310546875,-1.000701904296875,105.05999755859375,-26.8035888671875,-39.61370849609375,2023-09-09 15:31:51.6960,1694291511.696362,-0.17566624283790588,-0.6857012510299683,-0.39858558773994446,-0.9561463594436646,0.0635223314166069,-0.14840684086084366,
0,2023-09-09 15:31:43.0990,01:31,10,1,2023-09-09 15:31:52.2000,1694291512.1999679,0.0001280980504816398,-0.00307541829533875,-0.0007171892793849111,0.013702392578125,0.003173828125,-1.001678466796875,105.25294494628906,-26.746337890625,-39.37339782714844,2023-09-09 15:31:51.7960,1694291511.796382,-0.21155041456222534,-0.7803378701210022,-0.35113751888275146,-0.9440767765045166,-0.03346252627670765,-0.08576950430870056,
0,2023-09-09 15:31:43.0990,01:31,10,1,2023-09-09 15:31:52.3000,1694291512.299917,-0.002172074280679226,-0.0062331282533705235,-0.004004595335572958,0.01434326171875,0.003509521484375,-1.0012054443359375,104.98785400390625,-26.58935546875,-39.25738525390625,2023-09-09 15:31:51.9040,1694291511.903652,-0.18400073051452637,-0.7626059055328369,-0.3003631830215454,-0.996811032295227,-0.0462341271340847,-0.06509383022785187,
0,2023-09-09 15:31:43.0990,01:31,10,1,2023-09-09 15:31:52.4000,1694291512.399957,-0.0008578042034059763,-0.0028458540327847004,-0.0015667376574128866,0.013916015625,0.00408935546875,-1.0017852783203125,105.06651306152344,-26.668426513671875,-39.139892578125,2023-09-09 15:31:51.9960,1694291511.996025,-0.2161472886800766,-0.6625193953514099,-0.3021896779537201,-0.9796143770217896,-0.1243743821978569,0.044113337993621826,
0,2023-09-09 15:31:43.0990,01:31,10,1,2023-09-09 15:31:52.5000,1694291512.4998841,0.0016287893522530794,-0.0043840957805514336,-0.0037984666414558887,0.0142974853515625,0.003936767578125,-1.0008697509765625,105.11906433105469,-26.851547241210938,-39.28407287597656,2023-09-09 15:31:52.0960,1694291512.095782,-0.27833983302116394,-0.5759349465370178,-0.28527623414993286,-0.9987795352935791,-0.2156067192554474,0.263046458363533,
0,2023-09-09 15:31:43.0990,01:31,10,1,2023-09-09 15:31:52.6000,1694291512.60014,0.0004596615908667445,-0.0037060549948364496,-0.0012311793398112059,0.013916015625,0.0043182373046875,-1.000518798828125,104.97573852539062,-26.61187744140625,-39.105499267578125,2023-09-09 15:31:52.1960,1694291512.1955671,-0.4734193682670593,-0.49739497900009155,-0.38008445501327515,-0.9668275713920593,-0.2320709526538849,0.3031770884990692,
0,2023-09-09 15:31:43.0990,01:31,10,1,2023-09-09 15:31:52.7000,1694291512.7000299,-0.002412557601928711,-0.005298358853906393,-0.0015643407823517919,0.0141754150390625,0.003570556640625,-1.0007781982421875,105.01258850097656,-26.744155883789062,-39.1314697265625,2023-09-09 15:31:52.2950,1694291512.2954168,-0.32416003942489624,-0.38595250248908997,-0.3285205066204071,-0.9166107773780823,-0.2775574028491974,0.2525789141654968,
0,2023-09-09 15:31:43.0990,01:31,10,1,2023-09-09 15:31:52.8000,1694291512.800113,0.0009171926649287343,-0.006425142288208008,-0.0016698020044714212,0.014251708984375,0.00433349609375,-1.00115966796875,105.03326416015625,-26.711715698242188,-39.43006896972656,2023-09-09 15:31:52.3950,1694291512.395286,-0.39268577098846436,-0.2145633101463318,-0.4054888188838959,-0.8993991613388062,-0.30329906940460205,0.2894900143146515,
0,2023-09-09 15:31:43.0990,01:31,10,1,2023-09-09 15:31:52.8990,1694291512.898573,-0.0004247741890139878,-0.002743322169408202,-0.0031590417493134737,0.013916015625,0.0039825439453125,-1.00146484375,105.03884887695312,-26.895278930664062,-39.51397705078125,2023-09-09 15:31:52.4950,1694291512.495286,-0.31635013222694397,-0.08891403675079346,-0.28642815351486206,-0.9616702198982239,-0.31089791655540466,0.2809450924396515,
0,2023-09-09 15:31:43.0990,01:31,10,1,2023-09-09 15:31:52.9990,1694291512.9993,-0.0012189288390800357,-0.0031105722300708294,-0.001734516816213727,0.01361083984375,0.00396728515625,-1.001312255859375,104.97630310058594,-26.93798828125,-39.5118408203125,2023-09-09 15:31:52.5950,1694291512.594812,-0.46952176094055176,0.2746049165725708,-0.20616622269153595,-0.9258272051811218,-0.3011627793312073,0.2218172550201416,
0,2023-09-09 15:31:43.0990,01:31,10,1,2023-09-09 15:31:53.0990,1694291513.0987148,-0.0002932140196207911,-0.004309260752052069,-0.00284958234988153,0.0137786865234375,0.003753662109375,-1.0013885498046875,105.08236694335938,-26.9217529296875,-39.32527160644531,2023-09-09 15:31:52.6950,1694291512.694735,-1.3312522172927856,0.3956373333930969,0.0608021542429924,-0.8630983233451843,-0.3600769639015198,-0.031310781836509705,
0,2023-09-09 15:31:43.0990,01:31,10,1,2023-09-09 15:31:53.2000,1694291513.200012,-0.0021920478902757168,-0.004019775427877903,-0.0012532835826277733,0.0139617919921875,0.003265380859375,-1.0009613037109375,105.164794921875,-26.919204711914062,-39.2542724609375,2023-09-09 15:31:52.7950,1694291512.794549,-0.9813950061798096,8.094869554042816e-05,0.6621231436729431,-0.8409884572029114,-0.27554333209991455,0.3629153370857239,
0,2023-09-09 15:31:43.0990,01:31,10,1,2023-09-09 15:31:53.3000,1694291513.299831,0.0004673847579397261,-0.0057159424759447575,-0.0030362699180841446,0.01361083984375,0.0032958984375,-1.001129150390625,105.00401306152344,-26.80206298828125,-39.45658874511719,2023-09-09 15:31:52.8950,1694291512.8952389,-0.8336709141731262,-0.9399855136871338,-0.018787847831845284,-0.8710022568702698,-0.3158721923828125,0.31466688960790634,
0,2023-09-09 15:31:43.0990,01:31,10,1,2023-09-09 15:31:53.4000,1694291513.399898,-0.0012178635224699974,-0.0062768044881522655,-3.0360035452758893e-05,0.013885498046875,0.003875732421875,-1.001373291015625,104.96372985839844,-26.94482421875,-39.37225341796875,2023-09-09 15:31:52.9940,1694291512.994353,-0.880463719367981,-0.7884111404418945,0.08540699630975723,-0.8902742266654968,-0.3775329887866974,0.2226259857416153,
0,2023-09-09 15:31:43.0990,01:31,10,1,2023-09-09 15:31:53.5000,1694291513.499939,-0.002189118415117264,-0.003471696749329567,-0.00293373828753829,0.014434814453125,0.0027313232421875,-1.0012664794921875,105.029296875,-26.893463134765625,-39.27503967285156,2023-09-09 15:31:53.0940,1694291513.094088,-0.0722515732049942,0.0009873551316559315,-0.2907935380935669,-0.9232484698295593,-0.3836822807788849,0.2170718014240265,
0,2023-09-09 15:31:43.0990,01:31,10,1,2023-09-09 15:31:53.6000,1694291513.59989,-6.711165769957006e-05,-0.0057257963344454765,0.0014287859667092562,0.0135498046875,0.003692626953125,-1.001373291015625,105.12826538085938,-26.928802490234375,-39.247955322265625,2023-09-09 15:31:53.1940,1694291513.193912,0.01702011749148369,0.0025940402410924435,-0.19263187050819397,-0.8813021183013916,-0.5500336587429047,0.18304461240768433,
0,2023-09-09 15:31:43.0990,01:31,10,1,2023-09-09 15:31:53.7000,1694291513.6998448,0.002547047333791852,-0.002835467690601945,-0.0034416031558066607,0.013946533203125,0.003662109375,-1.0016021728515625,104.9974365234375,-26.711257934570312,-39.4227294921875,2023-09-09 15:31:53.2940,1694291513.293644,0.15529683232307434,-0.1222689300775528,-0.07595682889223099,-0.8778383135795593,-0.4395905137062073,0.22120682895183563,
0,2023-09-09 15:31:43.0990,01:31,10,1,2023-09-09 15:31:53.8000,1694291513.799849,-0.0023824640084058046,-0.004129763692617416,-0.0011467571603134274,0.014251708984375,0.0043182373046875,-1.001373291015625,104.99934387207031,-26.72015380859375,-39.687896728515625,2023-09-09 15:31:53.3940,1694291513.393571,0.09965287894010544,0.108575738966465,-0.006825893186032772,-0.8860931992530823,-0.4208679497241974,0.2344515025615692,
0,2023-09-09 15:31:43.0990,01:31,10,1,2023-09-09 15:31:53.9000,1694291513.900082,-0.0010932276491075754,-0.0017603494925424457,-0.0008594020619057119,0.0142059326171875,0.00372314453125,-1.001556396484375,105.05679321289062,-26.612518310546875,-39.2601318359375,2023-09-09 15:31:53.4930,1694291513.4934459,0.23027773201465607,0.04494030028581619,-0.10146891325712204,-0.8606415390968323,-0.4500885307788849,0.2122652381658554,
0,2023-09-09 15:31:43.0990,01:31,10,1,2023-09-09 15:31:54.0000,1694291513.9995499,-0.00013022858183830976,-0.005591040477156639,-0.0032778186723589897,0.0141448974609375,0.004180908203125,-1.001678466796875,105.12429809570312,-26.76416015625,-39.300628662109375,2023-09-09 15:31:53.5930,1694291513.5932698,-0.018330149352550507,-0.06943914294242859,-0.052247870713472366,-0.8656007647514343,-0.43475350737571716,0.2171480506658554,
0,2023-09-09 15:31:43.0990,01:31,10,1,2023-09-09 15:31:54.1000,1694291514.099537,-0.0036943370942026377,-0.0031992553267627954,-0.0005025385180488229,0.0140838623046875,0.0034332275390625,-1.0006103515625,105.06552124023438,-26.659942626953125,-39.25898742675781,2023-09-09 15:31:53.6930,1694291513.6929579,0.06047644838690758,-0.06568342447280884,-0.02218460850417614,-0.8850404024124146,-0.41767895221710205,0.238540917634964,
0,2023-09-09 15:31:43.0990,01:31,10,1,2023-09-09 15:31:54.2000,1694291514.1999578,0.0022743395529687405,-0.004258926957845688,-0.0022801985032856464,0.01409912109375,0.0032501220703125,-1.0007476806640625,105.23275756835938,-26.8756103515625,-39.66908264160156,2023-09-09 15:31:53.7930,1694291513.7928839,0.05706147477030754,-0.024241436272859573,-0.011848348192870617,-0.8653412461280823,-0.4463653564453125,0.2397005558013916,
0,2023-09-09 15:31:43.0990,01:31,10,1,2023-09-09 15:31:54.3000,1694291514.299821,-0.0004588626616168767,-0.0051777176558971405,-0.002195776207372546,0.01416015625,0.0027923583984375,-1.00042724609375,105.03834533691406,-26.5677490234375,-39.84562683105469,2023-09-09 15:31:53.8930,1694291513.892755,0.032162852585315704,-0.05672254413366318,-0.049251943826675415,-0.8577728271484375,-0.453125,0.2506258189678192,
0,2023-09-09 15:31:43.0990,01:31,10,1,2023-09-09 15:31:54.4000,1694291514.3999739,0.00034194986801594496,-0.0028298748657107353,-0.002494050422683358,0.0145263671875,0.00347900390625,-1.00140380859375,104.9964599609375,-26.689773559570312,-39.82246398925781,2023-09-09 15:31:53.9930,1694291513.992609,0.021766869351267815,-0.043617263436317444,-0.06915172189474106,-0.8549043536186218,-0.4494476914405823,0.25956758856773376,
0,2023-09-09 15:31:43.0990,01:31,10,1,2023-09-09 15:31:54.5000,1694291514.499886,0.00010386328358436003,-0.003165166825056076,-0.0019776634871959686,0.014068603515625,0.0039825439453125,-1.0015716552734375,105.08859252929688,-26.777175903320312,-39.67298889160156,2023-09-09 15:31:54.0920,1694291514.0924249,-0.014527088031172752,-0.09318748116493225,-0.0939888209104538,-0.8478549122810364,-0.45567330718040466,0.2601320743560791,
0,2023-09-09 15:31:43.0990,01:31,10,1,2023-09-09 15:31:54.6000,1694291514.5997272,0.0001613875647308305,-0.0044051348231732845,-0.0020128171890974045,0.0135040283203125,0.0040435791015625,-1.001617431640625,105.03076171875,-26.634140014648438,-39.79603576660156,2023-09-09 15:31:54.1920,1694291514.192253,0.01217549480497837,-0.19882948696613312,-0.15476274490356445,-0.853378415107727,-0.44956979155540466,0.2755434811115265,
0,2023-09-09 15:31:43.0990,01:31,10,1,2023-09-09 15:31:54.7000,1694291514.699737,-0.002680737990885973,-0.00567093538120389,-0.0037734329234808683,0.014373779296875,0.0033721923828125,-1.0019378662109375,104.96510314941406,-26.881515502929688,-39.621246337890625,2023-09-09 15:31:54.2920,1694291514.2920709,0.017231440171599388,-0.17841756343841553,-0.10976476222276688,-0.8344270586967468,-0.48252877593040466,0.2980195879936218,
0,2023-09-09 15:31:43.0990,01:31,10,1,2023-09-09 15:31:54.8000,1694291514.799896,-0.0005992112564854324,-0.00475454144179821,0.0003371562052052468,0.0143280029296875,0.0039215087890625,-1.00115966796875,105.02052307128906,-26.597763061523438,-39.99909973144531,2023-09-09 15:31:54.3920,1694291514.39194,0.00758174154907465,-0.0713622123003006,-0.05947016179561615,-0.8123627305030823,-0.4774322807788849,0.3206789195537567,
0,2023-09-09 15:31:43.0990,01:31,10,1,2023-09-09 15:31:54.9000,1694291514.8999748,0.0004495415778364986,-0.004652009811252356,-0.0032202943693846464,0.0133819580078125,0.0041046142578125,-1.0015106201171875,104.91690063476562,-26.743270874023438,-39.92332458496094,2023-09-09 15:31:54.4920,1694291514.491922,-0.029917163774371147,-0.003434557467699051,-0.07350235432386398,-0.8110353350639343,-0.48658761382102966,0.29737886786460876,
0,2023-09-09 15:31:43.0990,01:31,10,1,2023-09-09 15:31:55.0000,1694291514.99992,-0.000818123109638691,-0.003623230615630746,-0.0020122844725847244,0.0142822265625,0.003173828125,-1.00067138671875,104.82244873046875,-26.539382934570312,-39.707122802734375,2023-09-09 15:31:54.5920,1694291514.5916061,-0.048693448305130005,-0.050422172993421555,-0.07902378588914871,-0.8278504610061646,-0.48580941557884216,0.3043520450592041,
0,2023-09-09 15:31:43.0990,01:31,10,1,2023-09-09 15:31:55.0980,1694291515.097894,-0.00021358551748562604,-0.003343865042552352,-0.0011646003695204854,0.0134735107421875,0.0037078857421875,-1.001617431640625,105.11305236816406,-26.796554565429688,-39.45719909667969,2023-09-09 15:31:54.6920,1694291514.691603,-0.05444261431694031,-0.0807221531867981,-0.024485480040311813,-0.8081668019294739,-0.48912060260772705,0.316238671541214,
0,2023-09-09 15:31:43.0990,01:31,10,1,2023-09-09 15:31:55.2000,1694291515.199908,-0.0007254450465552509,-0.003522563260048628,-0.003210440743714571,0.0142669677734375,0.0030975341796875,-1.00091552734375,104.93659973144531,-26.464691162109375,-39.65122985839844,2023-09-09 15:31:54.7910,1694291514.791301,-0.03335697203874588,0.031130744144320488,-0.050392478704452515,-0.8064119815826416,-0.5078889727592468,0.30531346797943115,
0,2023-09-09 15:31:43.0990,01:31,10,1,2023-09-09 15:31:55.3000,1694291515.2998018,-0.00013768543431069702,-0.000841825210954994,-0.0025563682429492474,0.014495849609375,0.00299072265625,-1.000946044921875,104.9425048828125,-26.352569580078125,-39.51429748535156,2023-09-09 15:31:54.8910,1694291514.891141,-0.04327158257365227,0.07586213201284409,-0.09818173944950104,-0.7816619873046875,-0.5164794325828552,0.3205568492412567,
0,2023-09-09 15:31:43.0990,01:31,10,1,2023-09-09 15:31:55.3990,1694291515.399366,0.0006213154993019998,-0.0044197821989655495,-0.0008106662426143885,0.0138397216796875,0.00384521484375,-1.0015106201171875,104.91119384765625,-26.588943481445312,-39.55718994140625,2023-09-09 15:31:54.9910,1694291514.991067,-0.025180399417877197,-0.03306102380156517,-0.05328034609556198,-0.779678463935852,-0.5131683945655823,0.3134615123271942,
0,2023-09-09 15:31:43.0990,01:31,10,1,2023-09-09 15:31:55.5000,1694291515.499835,-0.0008767126128077507,-0.00313560594804585,-0.003710049670189619,0.0138092041015625,0.0034942626953125,-1.0011138916015625,105.03779602050781,-26.53802490234375,-39.500244140625,2023-09-09 15:31:55.0910,1694291515.090791,-0.04126995429396629,-0.03512031212449074,-0.07295747846364975,-0.8110048174858093,-0.5067445039749146,0.3045503497123718,
0,2023-09-09 15:31:43.0990,01:31,10,1,2023-09-09 15:31:55.6000,1694291515.5999188,0.00023755396250635386,-0.0006780407857149839,-0.0017925737192854285,0.0138092041015625,0.0038604736328125,-1.00048828125,105.00996398925781,-26.590469360351562,-39.39854431152344,2023-09-09 15:31:55.1910,1694291515.19062,-0.02255159243941307,0.037358012050390244,-0.0974549949169159,-0.7902680039405823,-0.53790283203125,0.31893935799598694,
0,2023-09-09 15:31:43.0990,01:31,10,1,2023-09-09 15:31:55.7000,1694291515.69974,-0.0014817827614024282,-0.006976416800171137,-0.0007574030314572155,0.014434814453125,0.0036773681640625,-1.0012054443359375,105.04060363769531,-26.681259155273438,-39.343292236328125,2023-09-09 15:31:55.2900,1694291515.290484,0.04953824356198311,-0.022060703486204147,-0.07231991738080978,-0.793655514717102,-0.5371857285499573,0.2983857989311218,
0,2023-09-09 15:31:43.0990,01:31,10,1,2023-09-09 15:31:55.8000,1694291515.8000321,-0.0001603222917765379,-0.004689293913543224,-0.00019734023953787982,0.0142364501953125,0.00341796875,-1.00189208984375,105.02052307128906,-26.664825439453125,-39.37367248535156,2023-09-09 15:31:55.3900,1694291515.390312,0.059494540095329285,-0.06025882437825203,-0.07386031746864319,-0.7794497609138489,-0.547226071357727,0.30169716477394104,
0,2023-09-09 15:31:43.0990,01:31,10,1,2023-09-09 15:31:55.9000,1694291515.899862,-0.0011193265672773123,-0.004317250568419695,-0.0006239786162041128,0.0138092041015625,0.003997802734375,-1.0014190673828125,105.03402709960938,-26.634384155273438,-39.75660705566406,2023-09-09 15:31:55.4900,1694291515.49014,0.020505595952272415,-0.038636352866888046,-0.02150803431868553,-0.7683869004249573,-0.5449371337890625,0.3276980221271515,
0,2023-09-09 15:31:43.0990,01:31,10,1,2023-09-09 15:31:55.9980,1694291515.9978209,-0.002808836055919528,-0.005631786771118641,-0.0036013927310705185,0.0143585205078125,0.003875732421875,-1.0008392333984375,105.06578063964844,-26.422225952148438,-39.406768798828125,2023-09-09 15:31:55.5900,1694291515.589983,-0.00230031693354249,0.004619906656444073,-0.03127600625157356,-0.7725374102592468,-0.5490723848342896,0.3294984996318817,
0,2023-09-09 15:31:43.0990,01:31,10,1,2023-09-09 15:31:56.0990,1694291516.098875,-8.415588672505692e-05,-0.00395612558349967,-0.0024711471050977707,0.013641357421875,0.0032958984375,-1.0016326904296875,104.94192504882812,-26.507904052734375,-39.6427001953125,2023-09-09 15:31:55.6900,1694291515.689948,-0.0130304591730237,0.011661837808787823,-0.005798878148198128,-0.7802734375,-0.544281005859375,0.3170626163482666,
0,2023-09-09 15:31:43.0990,01:31,10,1,2023-09-09 15:31:56.2000,1694291516.2001061,-0.0024596955627202988,-0.0057558901607990265,-0.0012159993639215827,0.0135040283203125,0.00396728515625,-1.001708984375,105.18441772460938,-26.865615844726562,-39.15599060058594,2023-09-09 15:31:55.7900,1694291515.78963,0.010203490033745766,-0.01266693789511919,-0.005457327701151371,-0.7702484726905823,-0.5379181504249573,0.3129428029060364,
0,2023-09-09 15:31:43.0990,01:31,10,1,2023-09-09 15:31:56.3000,1694291516.299833,0.00023302659974433482,-0.0037926076911389828,-0.0008215851848945022,0.01361083984375,0.00372314453125,-1.00006103515625,105.10198974609375,-26.622787475585938,-39.933074951171875,2023-09-09 15:31:55.8890,1694291515.889454,-0.0016730092465877533,-0.019232161343097687,0.0007453744765371084,-0.7665864825248718,-0.5525208711624146,0.3210756778717041,
0,2023-09-09 15:31:43.0990,01:31,10,1,2023-09-09 15:31:56.4000,1694291516.39973,-0.0012271846644580364,-0.004942294210195541,-0.004344680812209845,0.0142822265625,0.00390625,-1.0002593994140625,105.134033203125,-26.799697875976562,-39.60969543457031,2023-09-09 15:31:55.9890,1694291515.989285,0.015199580229818821,0.0017301114276051521,-0.011205627582967281,-0.7772217988967896,-0.547836422920227,0.3143618106842041,
0,2023-09-09 15:31:43.0990,01:31,10,1,2023-09-09 15:31:56.5000,1694291516.499776,-0.001047687605023384,-0.0063034361228346825,-0.0014034858904778957,0.0146484375,0.0040283203125,-1.0009002685546875,105.03579711914062,-26.964431762695312,-39.391632080078125,2023-09-09 15:31:56.0890,1694291516.089349,0.02725338004529476,-0.004622459411621094,0.0012950841337442398,-0.7668763399124146,-0.5458374619483948,0.3131259083747864,
0,2023-09-09 15:31:43.0990,01:31,10,1,2023-09-09 15:31:56.6000,1694291516.5998049,-0.0009643306257203221,-0.00321949552744627,-0.0007209177128970623,0.0139923095703125,0.0037994384765625,-1.0008087158203125,105.03094482421875,-26.84967041015625,-39.47746276855469,2023-09-09 15:31:56.1890,1694291516.189167,-0.013380132615566254,0.0014874977059662342,0.00029270362574607134,-0.7682650089263916,-0.5560762286186218,0.3242036700248718,
0,2023-09-09 15:31:43.0990,01:31,10,1,2023-09-09 15:31:56.7000,1694291516.699666,-0.0024775387719273567,-0.0017725999932736158,0.0004743089957628399,0.0136566162109375,0.0037689208984375,-1.00067138671875,105.16958618164062,-26.748291015625,-39.61811828613281,2023-09-09 15:31:56.2890,1694291516.2889462,-0.013768288306891918,0.00013354606926441193,0.002198261907324195,-0.7709810733795166,-0.5470887422561646,0.323654443025589,
0,2023-09-09 15:31:43.0990,01:31,10,1,2023-09-09 15:31:56.8000,1694291516.800167,-0.0023097596131265163,-0.0035782232880592346,-0.0020471718162298203,0.0134735107421875,0.0042877197265625,-1.0007171630859375,105.16879272460938,-26.551010131835938,-39.63763427734375,2023-09-09 15:31:56.3890,1694291516.388661,0.016640815883874893,0.0013534068129956722,0.001914602005854249,-0.771988034248352,-0.548324704170227,0.3214113116264343,
0,2023-09-09 15:31:43.0990,01:31,10,1,2023-09-09 15:31:56.9000,1694291516.9001908,-0.0033103092573583126,-0.004875981714576483,-0.0030365362763404846,0.0150299072265625,0.0033721923828125,-1.001129150390625,105.12443542480469,-26.72076416015625,-39.33039855957031,2023-09-09 15:31:56.4890,1694291516.488562,0.0033207505475729704,-0.0027135061100125313,-0.004086432047188282,-0.7738801836967468,-0.546218991279602,0.3137820363044739,
0,2023-09-09 15:31:43.0990,01:31,10,1,2023-09-09 15:31:56.9990,1694291516.999258,-0.0036160401068627834,-0.003462375607341528,-0.00407437002286315,0.0147552490234375,0.0034942626953125,-1.001678466796875,104.98959350585938,-26.59527587890625,-39.62388610839844,2023-09-09 15:31:56.5880,1694291516.588323,-0.00723548699170351,-0.008351950906217098,-0.002613570773974061,-0.766189694404602,-0.5411377549171448,0.3236849904060364,
0,2023-09-09 15:31:43.0990,01:31,10,1,2023-09-09 15:31:57.1000,1694291517.0997539,-0.00032330775866284966,-0.004281830508261919,-0.0003414172388147563,0.0134429931640625,0.0029296875,-1.001190185546875,105.0643310546875,-26.75726318359375,-39.2889404296875,2023-09-09 15:31:56.6880,1694291516.688146,0.012964922934770584,-0.006467897444963455,-0.0070747979916632175,-0.7689516544342041,-0.5529786944389343,0.3205415904521942,
0,2023-09-09 15:31:43.0990,01:31,10,1,2023-09-09 15:31:57.1990,1694291517.199247,2.3968450477696024e-05,-0.0028724854346364737,-0.00023968449386302382,0.01446533203125,0.003692626953125,-1.0013427734375,105.05679321289062,-26.470474243164062,-39.43067932128906,2023-09-09 15:31:56.7880,1694291516.788155,-0.012845302931964397,-0.011260122992098331,0.004404191859066486,-0.7712861895561218,-0.543960690498352,0.3222200572490692,
0,2023-09-09 15:31:43.0990,01:31,10,1,2023-09-09 15:31:57.3000,1694291517.299924,0.0011848403373733163,-0.004532167688012123,-0.0008444883860647678,0.0139923095703125,0.003692626953125,-1.0015869140625,105.10281372070312,-26.581649780273438,-39.442596435546875,2023-09-09 15:31:56.8880,1694291516.887851,0.006583722308278084,-0.0023128343746066093,0.00569772208109498,-0.769333004951477,-0.5431519150733948,0.3206636309623718,
0,2023-09-09 15:31:43.0990,01:31,10,1,2023-09-09 15:31:57.4000,1694291517.399719,-0.0016732640797272325,-0.0023068301379680634,-0.0033816818613559008,0.013885498046875,0.0037689208984375,-1.0011138916015625,105.03955078125,-26.463302612304688,-39.47283935546875,2023-09-09 15:31:56.9880,1694291516.987695,0.011964439414441586,-0.0032669110223650932,-0.007895218208432198,-0.7707061767578125,-0.5500794053077698,0.3197023570537567,
0,2023-09-09 15:31:43.0990,01:31,10,1,2023-09-09 15:31:57.5000,1694291517.4997249,0.0013310478534549475,-0.004554804414510727,-0.0031158984638750553,0.013336181640625,0.0034942626953125,-1.000885009765625,105.163330078125,-26.719680786132812,-39.59666442871094,2023-09-09 15:31:57.0880,1694291517.0875301,-0.0023479207884520292,-0.015996821224689484,0.010857829824090004,-0.7675171494483948,-0.5516357421875,0.3280032277107239,
0,2023-09-09 15:31:43.0990,01:31,10,1,2023-09-09 15:31:57.6000,1694291517.599688,-0.004640558268874884,-0.005505020264536142,-0.0026077672373503447,0.0144500732421875,0.00323486328125,-1.001861572265625,105.10879516601562,-26.581390380859375,-39.88670349121094,2023-09-09 15:31:57.1870,1694291517.187464,-0.0006652025040239096,0.0017017479985952377,-0.0027951980009675026,-0.76971435546875,-0.5478973984718323,0.3271791934967041,
0,2023-09-09 15:31:43.0990,01:31,10,1,2023-09-09 15:31:57.6970,1694291517.6967402,-0.00031425300403498113,-0.004490888677537441,-0.000922519015148282,0.0137176513671875,0.0048675537109375,-1.0006866455078125,105.290283203125,-26.703292846679688,-39.38230895996094,2023-09-09 15:31:57.2870,1694291517.287074,0.0008716412121430039,-0.0014808624982833862,-0.008373688906431198,-0.7731173634529114,-0.5454866290092468,0.3217470645904541,
0,2023-09-09 15:31:43.0990,01:31,10,1,2023-09-09 15:31:57.8000,1694291517.7999,-0.0025715483352541924,-0.005374525208026171,-0.002817890839651227,0.01397705078125,0.0032196044921875,-1.001220703125,105.11811828613281,-26.633636474609375,-39.508026123046875,2023-09-09 15:31:57.3870,1694291517.387042,-0.0008751263376325369,-0.011435224674642086,-0.0037199477665126324,-0.770675778388977,-0.542251706123352,0.3275453448295593,
0,2023-09-09 15:31:43.0990,01:31,10,1,2023-09-09 15:31:57.9000,1694291517.899725,4.740426811622456e-05,-0.006204099860042334,-0.0023166837636381388,0.013458251953125,0.0033416748046875,-1.000579833984375,105.31013488769531,-26.64715576171875,-39.607391357421875,2023-09-09 15:31:57.4870,1694291517.48698,0.0031144223175942898,0.0008802968077361584,0.005801718682050705,-0.7598116397857666,-0.5545045137405396,0.32930025458335876,
0,2023-09-09 15:31:43.0990,01:31,10,1,2023-09-09 15:31:57.9990,1694291517.998878,-0.0012985573848709464,-0.004217115696519613,-0.0011520835105329752,0.01446533203125,0.0041961669921875,-1.000244140625,105.0994873046875,-26.536163330078125,-39.74308776855469,2023-09-09 15:31:57.5870,1694291517.586773,-0.0014526990707963705,0.00021969899535179138,0.0029092926997691393,-0.769729733467102,-0.547104001045227,0.3242342174053192,
0,2023-09-09 15:31:43.0990,01:31,10,1,2023-09-09 15:31:58.1000,1694291518.1003141,-0.002139583695679903,-0.0054664043709635735,-0.001725462032482028,0.0137939453125,0.0039215087890625,-1.00140380859375,105.11373901367188,-26.562347412109375,-39.610626220703125,2023-09-09 15:31:57.6870,1694291517.686538,0.012928104028105736,-0.005148168653249741,-0.004728653468191624,-0.7713625431060791,-0.5471193194389343,0.32165563106536865,
0,2023-09-09 15:31:43.0990,01:31,10,1,2023-09-09 15:31:58.2000,1694291518.199813,-0.0017771273851394653,-0.002674879040569067,-0.0013342436868697405,0.0141448974609375,0.003448486328125,-1.0012359619140625,105.12295532226562,-26.741073608398438,-39.70599365234375,2023-09-09 15:31:57.7860,1694291517.7863789,-0.004117990843951702,0.00023647677153348923,-0.011064313352108002,-0.7684632539749146,-0.550857663154602,0.3260195553302765,
0,2023-09-09 15:31:43.0990,01:31,10,1,2023-09-09 15:31:58.3000,1694291518.29979,-0.0001560612436151132,-0.0019835224375128746,-0.0010050770360976458,0.0142822265625,0.0032958984375,-1.0016937255859375,105.10127258300781,-26.829925537109375,-39.71435546875,2023-09-09 15:31:57.8860,1694291517.8862119,-0.004943171050399542,0.001628511119633913,0.004925505258142948,-0.7588959336280823,-0.5467377305030823,0.3283083140850067,
0,2023-09-09 15:31:43.0990,01:31,10,1,2023-09-09 15:31:58.4000,1694291518.399843,-0.0021859225817024708,-0.0030328077264130116,-6.391586794052273e-05,0.0145721435546875,0.00396728515625,-1.0007781982421875,105.21174621582031,-26.860794067382812,-39.49229431152344,2023-09-09 15:31:57.9860,1694291517.985897,-0.00037671555764973164,-0.023600813001394272,-0.007952043786644936,-0.761032223701477,-0.5472869873046875,0.33033785223960876,
0,2023-09-09 15:31:43.0990,01:31,10,1,2023-09-09 15:31:58.5000,1694291518.499959,-0.0011073424248024821,-0.005765477195382118,-0.0013134710025042295,0.01409912109375,0.0037078857421875,-1.0002593994140625,105.14498901367188,-26.726821899414062,-39.49609375,2023-09-09 15:31:58.0860,1694291518.085927,0.006455757189542055,-0.024810684844851494,0.000723403412848711,-0.7680360078811646,-0.5474091172218323,0.3386538326740265,
0,2023-09-09 15:31:43.0990,01:31,10,1,2023-09-09 15:31:58.6000,1694291518.599934,-0.0014397049089893699,-0.005375324282795191,-0.001463939668610692,0.013916015625,0.004486083984375,-1.0008544921875,105.09030151367188,-26.656143188476562,-39.63691711425781,2023-09-09 15:31:58.1860,1694291518.1857471,-0.0036643880885094404,0.016945283859968185,-0.012451320886611938,-0.7667236924171448,-0.5418701171875,0.33442702889442444,
0,2023-09-09 15:31:43.0990,01:31,10,1,2023-09-09 15:31:58.7000,1694291518.699925,-0.0004982774262316525,-0.0036874127108603716,-0.00033156355493701994,0.0139617919921875,0.004180908203125,-1.002166748046875,104.98088073730469,-26.505203247070312,-39.54713439941406,2023-09-09 15:31:58.2850,1694291518.285429,0.0002515241503715515,-3.0239112675189972e-05,0.005581342149525881,-0.7586061954498291,-0.552993893623352,0.33045992255210876,
0,2023-09-09 15:31:43.0990,01:31,10,1,2023-09-09 15:31:58.8000,1694291518.800273,-0.0021766014397144318,-0.003926032222807407,-0.004144411068409681,0.0145111083984375,0.0029296875,-1.001129150390625,105.07106018066406,-26.514602661132812,-39.33222961425781,2023-09-09 15:31:58.3850,1694291518.385408,0.008213909342885017,-0.004597692750394344,0.0036502506118267775,-0.7632294297218323,-0.5478516221046448,0.3349000811576843,
0,2023-09-09 15:31:43.0990,01:31,10,1,2023-09-09 15:31:58.9000,1694291518.899753,-0.0007653924985788763,-0.005082110408693552,-0.0005520732956938446,0.01287841796875,0.0035247802734375,-1.001495361328125,105.23928833007812,-26.64208984375,-39.06599426269531,2023-09-09 15:31:58.4850,1694291518.485245,-0.012396826408803463,0.014820213429629803,-0.00209631840698421,-0.763290524482727,-0.5465546250343323,0.32899507880210876,
0,2023-09-09 15:31:43.0990,01:31,10,1,2023-09-09 15:31:58.9990,1694291518.9993792,4.873584839515388e-05,-0.002868224401026964,-0.0017004283145070076,0.014251708984375,0.00347900390625,-1.001556396484375,105.23828125,-26.590545654296875,-39.2822265625,2023-09-09 15:31:58.5850,1694291518.584955,0.01750541292130947,-0.014047653414309025,-0.002215628046542406,-0.7638550996780396,-0.556778073310852,0.3258821964263916,
0,2023-09-09 15:31:43.0990,01:31,10,1,2023-09-09 15:31:59.1000,1694291519.0999742,0.0011427623685449362,-0.0032719597220420837,-0.001782187377102673,0.01336669921875,0.0036468505859375,-1.000885009765625,105.06915283203125,-26.550003051757812,-39.81219482421875,2023-09-09 15:31:58.6850,1694291518.684932,0.001178370788693428,0.0005427403375506401,0.0013840337051078677,-0.7656860947608948,-0.551788330078125,0.3334657847881317,
0,2023-09-09 15:31:43.0990,01:31,10,1,2023-09-09 15:31:59.1970,1694291519.197104,-0.0024802018888294697,-0.004729241598397493,-0.0033968619536608458,0.014190673828125,0.0040283203125,-1.0007171630859375,105.20455932617188,-26.773147583007812,-39.38743591308594,2023-09-09 15:31:58.7850,1694291518.784756,0.001079966896213591,0.008186278864741325,-0.004140627104789019,-0.7625123262405396,-0.5502472519874573,0.32600435614585876,
0,2023-09-09 15:31:43.0990,01:31,10,1,2023-09-09 15:31:59.3000,1694291519.2999911,-0.0025715483352541924,-0.0035324168857187033,-0.0009241168736480176,0.0136566162109375,0.00421142578125,-1.00042724609375,105.06253051757812,-26.676483154296875,-39.43736267089844,2023-09-09 15:31:58.8850,1694291518.884574,0.0018345735734328628,-0.005451235920190811,-0.001974612008780241,-0.76507568359375,-0.5496216416358948,0.3294527232646942,
0,2023-09-09 15:31:43.0990,01:31,10,1,2023-09-09 15:31:59.4000,1694291519.399946,0.002028263406828046,-0.005419266410171986,-0.0006255765329115093,0.014007568359375,0.003631591796875,-1.0006103515625,105.06683349609375,-26.529876708984375,-39.63551330566406,2023-09-09 15:31:58.9840,1694291518.984379,-0.0017629575449973345,0.0015621986240148544,-0.003927840851247311,-0.7671509981155396,-0.5461732149124146,0.3355868458747864,
0,2023-09-09 15:31:43.0990,01:31,10,1,2023-09-09 15:31:59.5000,1694291519.500088,0.0003222425002604723,-0.0036887445021420717,-0.002079928759485483,0.0140380859375,0.0032501220703125,-1.000823974609375,105.15847778320312,-26.93560791015625,-39.65464782714844,2023-09-09 15:31:59.0840,1694291519.084208,-0.00201455969363451,0.0015269117429852486,0.010302993468940258,-0.7623751759529114,-0.558639645576477,0.33255037665367126,
0,2023-09-09 15:31:43.0990,01:31,10,1,2023-09-09 15:31:59.6000,1694291519.6000881,6.364954606397077e-05,-0.00663526589050889,-0.0005371595616452396,0.0138092041015625,0.0037689208984375,-1.0013885498046875,105.13346862792969,-26.664031982421875,-39.4813232421875,2023-09-09 15:31:59.1840,1694291519.184116,0.0027399153914302588,-0.009899779222905636,-0.00023669959045946598,-0.7627108693122864,-0.5464631915092468,0.32820168137550354,
0,2023-09-09 15:31:43.0990,01:31,10,1,2023-09-09 15:31:59.7000,1694291519.699915,0.0009177253232337534,-0.005793174263089895,-0.004387557972222567,0.0147857666015625,0.0041046142578125,-1.0019989013671875,105.15367126464844,-26.475906372070312,-39.42584228515625,2023-09-09 15:31:59.2840,1694291519.283927,-0.0037950824480503798,-5.8867037296295166e-05,0.00599130243062973,-0.764907956123352,-0.5475922226905823,0.3362582325935364,
0,2023-09-09 15:31:43.0990,01:31,10,1,2023-09-09 15:31:59.8000,1694291519.800057,-0.001654355670325458,-0.005126318894326687,0.0004082625964656472,0.0140838623046875,0.0036163330078125,-1.00128173828125,105.07072448730469,-26.610687255859375,-39.5931396484375,2023-09-09 15:31:59.3840,1694291519.383827,-0.00906507857143879,0.004429358057677746,-0.008970536291599274,-0.7646942734718323,-0.545989990234375,0.33911144733428955,
0,2023-09-09 15:31:43.0990,01:31,10,1,2023-09-09 15:31:59.8990,1694291519.899193,-0.0020628846250474453,-0.003826696192845702,-0.0008884305134415627,0.0143890380859375,0.003204345703125,-1.0008087158203125,105.08506774902344,-26.874282836914062,-39.3988037109375,2023-09-09 15:31:59.4900,1694291519.489942,0.0016740515129640698,0.001178304199129343,0.003926919773221016,-0.7596285343170166,-0.5491792559623718,0.3283998966217041,
0,2023-09-09 15:31:43.0990,01:31,10,1,2023-09-09 15:32:00.0000,1694291519.999988,-0.0011398328933864832,-0.0038570561446249485,-0.002680205274373293,0.01361083984375,0.0035552978515625,-1.001708984375,105.203125,-26.868759155273438,-39.56059265136719,2023-09-09 15:31:59.5840,1694291519.583631,0.01597895473241806,-0.00039349310100078583,-0.00687845703214407,-0.7629091739654541,-0.5495912432670593,0.3283540904521942,
0,2023-09-09 15:31:43.0990,01:31,10,1,2023-09-09 15:32:00.1000,1694291520.100109,-0.0005020058597438037,-0.005101018585264683,-0.0026114957872778177,0.0142822265625,0.0036773681640625,-1.0006866455078125,105.15788269042969,-26.76324462890625,-39.426544189453125,2023-09-09 15:31:59.6830,1694291519.683476,0.025800760835409164,-0.020985718816518784,0.0013356306590139866,-0.7666627764701843,-0.5504456162452698,0.3265078365802765,
0,2023-09-09 15:31:43.0990,01:31,10,1,2023-09-09 15:32:00.2000,1694291520.200167,0.000586161739192903,-0.005846703890711069,-0.004009122494608164,0.013885498046875,0.0033111572265625,-1.0009002685546875,105.03793334960938,-26.715240478515625,-39.13496398925781,2023-09-09 15:31:59.7830,1694291519.783087,0.00044194015208631754,0.0032891258597373962,-0.001056054257787764,-0.76513671875,-0.552764892578125,0.3366548418998718,
0,2023-09-09 15:31:43.0990,01:31,10,1,2023-09-09 15:32:00.3000,1694291520.300033,-0.0011757856700569391,-0.005056277383118868,-0.0005067995516583323,0.0139312744140625,0.003448486328125,-1.001708984375,105.1182861328125,-26.821792602539062,-38.89813232421875,2023-09-09 15:31:59.8830,1694291519.882938,-0.003170038340613246,-0.009949580766260624,-0.004275582730770111,-0.7680819034576416,-0.5519258379936218,0.3327638804912567,
0,2023-09-09 15:31:43.0990,01:31,10,1,2023-09-09 15:32:00.3990,1694291520.398557,0.0012178635224699974,-0.0036493295338004827,-0.002540389308705926,0.014495849609375,0.003662109375,-1.0010223388671875,105.14884948730469,-26.628646850585938,-39.27754211425781,2023-09-09 15:31:59.9830,1694291519.9829369,0.005034761503338814,-0.004006204195320606,0.0010946146212518215,-0.7660372853279114,-0.5464021563529968,0.3308566212654114,
0,2023-09-09 15:31:43.0990,01:31,10,1,2023-09-09 15:32:00.5000,1694291520.5000129,-0.000990695902146399,-0.0031366711482405663,0.0002759034978225827,0.0137176513671875,0.00335693359375,-1.0003662109375,104.98570251464844,-26.447647094726562,-38.98602294921875,2023-09-09 15:32:00.0830,1694291520.082742,-0.014020023867487907,0.0037254844792187214,0.002074724528938532,-0.7596741318702698,-0.55108642578125,0.3422548472881317,
0,2023-09-09 15:31:43.0990,01:31,10,1,2023-09-09 15:32:00.6000,1694291520.600271,0.001294029993005097,-0.005813946947455406,-0.003662645351141691,0.014312744140625,0.00433349609375,-1.000640869140625,105.151123046875,-26.722747802734375,-39.18919372558594,2023-09-09 15:32:00.1830,1694291520.182517,-0.008007271215319633,-0.0004407651722431183,-0.004570861347019672,-0.765487790107727,-0.5471802353858948,0.3384248912334442,
0,2023-09-09 15:31:43.0990,01:31,10,1,2023-09-09 15:32:00.6980,1694291520.697857,-0.0024618261959403753,-0.003888747887685895,-0.0022146848496049643,0.0134429931640625,0.0037078857421875,-0.999542236328125,105.03616333007812,-26.589263916015625,-39.14654541015625,2023-09-09 15:32:00.2820,1694291520.282277,-0.0012106180656701326,-0.006576155312359333,-0.0029806874226778746,-0.7694856524467468,-0.541366696357727,0.3392794728279114,
0,2023-09-09 15:31:43.0990,01:31,10,1,2023-09-09 15:32:00.8000,1694291520.800229,-0.0036970002111047506,-0.0030538467690348625,-0.001618403010070324,0.0145111083984375,0.00421142578125,-1.0011444091796875,105.06005859375,-26.668136596679688,-39.57829284667969,2023-09-09 15:32:00.3820,1694291520.382237,0.003949855919927359,-0.011393414810299873,0.006508654449135065,-0.7650452852249146,-0.5491791367530823,0.3395387828350067,
0,2023-09-09 15:31:43.0990,01:31,10,1,2023-09-09 15:32:00.9000,1694291520.9000978,-0.00140987744089216,-0.006458698306232691,-0.0024285365361720324,0.01434326171875,0.003814697265625,-1.00048828125,105.13880920410156,-26.731979370117188,-39.4296875,2023-09-09 15:32:00.4820,1694291520.4818978,-0.004182705655694008,-0.008760479278862476,0.026807833462953568,-0.762893795967102,-0.5485535860061646,0.3375704288482666,
0,2023-09-09 15:31:43.0990,01:31,10,1,2023-09-09 15:32:01.0000,1694291521.000071,0.0013315805699676275,-0.004009122494608164,-0.0023497070651501417,0.0145721435546875,0.0037384033203125,-1.0012969970703125,105.08784484863281,-26.432968139648438,-39.52720642089844,2023-09-09 15:32:00.5820,1694291520.581863,0.023104509338736534,-0.006581881083548069,-0.028828363865613937,-0.770492672920227,-0.5386353731155396,0.33490023016929626,
0,2023-09-09 15:31:43.0990,01:31,10,1,2023-09-09 15:32:01.1000,1694291521.1002998,-0.003227484878152609,-0.0057249972596764565,-0.0010061422362923622,0.01348876953125,0.0043182373046875,-1.0014495849609375,105.11708068847656,-26.649856567382812,-39.57579040527344,2023-09-09 15:32:00.6820,1694291520.681704,0.00980747863650322,0.003052636981010437,0.008931065909564495,-0.7560884356498718,-0.5508118867874146,0.3414462208747864,
0,2023-09-09 15:31:43.0990,01:31,10,1,2023-09-09 15:32:01.2000,1694291521.200338,-0.0002085255109705031,-0.006857639644294977,-0.0021462414879351854,0.014373779296875,0.003753662109375,-1.00146484375,105.10922241210938,-26.503005981445312,-39.49339294433594,2023-09-09 15:32:00.7810,1694291520.781471,0.00558164156973362,-0.01754864677786827,0.007384934462606907,-0.753738522529602,-0.5486451387405396,0.3439180552959442,
0,2023-09-09 15:31:43.0990,01:31,10,1,2023-09-09 15:32:01.3000,1694291521.3000531,-0.002493517706170678,-0.005197425372898579,-0.0032405343372374773,0.014404296875,0.0033721923828125,-1.0004730224609375,104.97911071777344,-26.60394287109375,-39.199493408203125,2023-09-09 15:32:00.8810,1694291520.8812752,0.0036075066309422255,0.0105957742780447,0.0028069275431334972,-0.7608798146247864,-0.545883297920227,0.3425447940826416,
0,2023-09-09 15:31:43.0990,01:31,10,1,2023-09-09 15:32:01.4000,1694291521.400233,-0.0002735066518653184,-0.0036786242853850126,-0.003658917034044862,0.0143890380859375,0.00341796875,-1.0012969970703125,105.05323791503906,-26.700485229492188,-39.24711608886719,2023-09-09 15:32:00.9810,1694291520.981093,-0.009123401716351509,0.0029297317378222942,-0.00016812316607683897,-0.7702792286872864,-0.5350342988967896,0.3412783741950989,
0,2023-09-09 15:31:43.0990,01:31,10,1,2023-09-09 15:32:01.5000,1694291521.500025,0.000609863898716867,-0.003229881636798382,-0.0022245384752750397,0.014190673828125,0.0039825439453125,-1.0010986328125,104.94801330566406,-26.568084716796875,-39.257659912109375,2023-09-09 15:32:01.0810,1694291521.081111,-0.006897132843732834,-0.001194705255329609,-0.006762309931218624,-0.7584686875343323,-0.5468597412109375,0.3431245684623718,
0,2023-09-09 15:31:43.0990,01:31,10,1,2023-09-09 15:32:01.6000,1694291521.6003861,-0.0010519486386328936,-0.0043622576631605625,-0.0009800433181226254,0.0145721435546875,0.003326416015625,-1.0010986328125,105.19010925292969,-26.710922241210938,-39.221099853515625,2023-09-09 15:32:01.1810,1694291521.180832,0.012829101644456387,-0.006560042500495911,-0.0044453260488808155,-0.7635194063186646,-0.5437318086624146,0.3341829776763916,
0,2023-09-09 15:31:43.0990,01:31,10,1,2023-09-09 15:32:01.6980,1694291521.697847,-0.0004324973560869694,-0.007910920307040215,-0.0031228226143866777,0.01470947265625,0.003448486328125,-1.0008087158203125,105.19010925292969,-26.710922241210938,-39.221099853515625,2023-09-09 15:32:01.2810,1694291521.280864,-0.004916206933557987,0.0016539450734853745,0.004575266502797604,-0.7602081894874573,-0.54833984375,0.3456270396709442,
0,2023-09-09 15:31:43.0990,01:31,10,1,2023-09-09 15:32:01.7990,1694291521.7987661,-0.0005573995877057314,-0.004265851341187954,-0.0011078750248998404,0.0141754150390625,0.0037078857421875,-1.00164794921875,105.03602600097656,-26.710433959960938,-39.17070007324219,2023-09-09 15:32:01.3810,1694291521.380513,-0.0072105200961232185,-0.0002981526777148247,0.0031579320784658194,-0.7574769258499146,-0.5431365966796875,0.3445131778717041,
0,2023-09-09 15:31:43.0990,01:31,10,1,2023-09-09 15:32:01.9000,1694291521.9004831,-0.0012945625931024551,-0.006798517424613237,-0.0031127026304602623,0.0150299072265625,0.0042572021484375,-1.0008697509765625,104.87973022460938,-26.39154052734375,-39.243804931640625,2023-09-09 15:32:01.4800,1694291521.480336,0.00535986665636301,-0.0018949834629893303,-0.0026855762116611004,-0.7573701739311218,-0.545333981513977,0.34210237860679626,
0,2023-09-09 15:31:43.0990,01:31,10,1,2023-09-09 15:32:02.0000,1694291522.000256,0.00022556974727194756,-0.005653890781104565,-0.0030093719251453876,0.0137786865234375,0.0030364990234375,-1.00128173828125,105.04890441894531,-26.643997192382812,-39.20448303222656,2023-09-09 15:32:01.5800,1694291521.580045,0.012502663768827915,-0.006111167371273041,-0.00015846919268369675,-0.761978268623352,-0.5497894287109375,0.3426974415779114,
0,2023-09-09 15:31:43.0990,01:31,10,1,2023-09-09 15:32:02.1000,1694291522.100203,-0.002537992550060153,-0.004911135416477919,-0.002834402257576585,0.0146026611328125,0.0037994384765625,-1.0017547607421875,105.10150146484375,-26.61773681640625,-39.204559326171875,2023-09-09 15:32:01.6800,1694291521.679881,0.0033552385866642,9.639561176300049e-05,-0.005086781922727823,-0.7636263370513916,-0.5438233613967896,0.3517306447029114,
0,2023-09-09 15:31:43.0990,01:31,10,1,2023-09-09 15:32:02.1980,1694291522.19808,-0.0007669904152862728,-0.0033569145016372204,-0.0006285060080699623,0.0138397216796875,0.0034637451171875,-1.0009002685546875,105.10072326660156,-26.67950439453125,-39.37098693847656,2023-09-09 15:32:01.7800,1694291521.77988,-0.0031733678188174963,0.004176358226686716,-4.072324372828007e-06,-0.7622681260108948,-0.5441742539405823,0.3443147838115692,
0,2023-09-09 15:31:43.0990,01:31,10,1,2023-09-09 15:32:02.3000,1694291522.300379,-0.00012223910016473383,-0.004457332659512758,-0.003754524514079094,0.0138092041015625,0.003448486328125,-1.0008392333984375,105.0362548828125,-26.6234130859375,-39.00666809082031,2023-09-09 15:32:01.8800,1694291521.879575,0.008086211048066616,-0.011423907242715359,-0.0009119438473135233,-0.7611694931983948,-0.5511322617530823,0.3428957462310791,
0,2023-09-09 15:31:43.0990,01:31,10,1,2023-09-09 15:32:02.4000,1694291522.400346,-0.002111886627972126,-0.0036013927310705185,-0.002688993699848652,0.01373291015625,0.0043487548828125,-1.000823974609375,105.03610229492188,-26.62799072265625,-39.32078552246094,2023-09-09 15:32:01.9790,1694291521.97949,0.006568741984665394,-0.0015568947419524193,0.000447999220341444,-0.7600404024124146,-0.5431519746780396,0.34626802802085876,
0,2023-09-09 15:31:43.0990,01:31,10,1,2023-09-09 15:32:02.5000,1694291522.500222,-0.0023526365403085947,-0.0049532135017216206,-0.0023941819090396166,0.01385498046875,0.00396728515625,-1.0015869140625,104.90689086914062,-26.639739990234375,-39.2698974609375,2023-09-09 15:32:02.0790,1694291522.079349,0.004040203522890806,0.0013909577392041683,-0.0073736379854381084,-0.7619171738624573,-0.5476837754249573,0.3424531817436218,
0,2023-09-09 15:31:43.0990,01:31,10,1,2023-09-09 15:32:02.6010,1694291522.600511,-0.0002537992550060153,-0.005542038008570671,-0.0027859327383339405,0.0145111083984375,0.0038604736328125,-1.0012969970703125,104.98638916015625,-26.6715087890625,-39.52061462402344,2023-09-09 15:32:02.1790,1694291522.1791039,0.017532775178551674,-0.01191672496497631,0.0027891509234905243,-0.7576906681060791,-0.5525819063186646,0.3407137393951416,
0,2023-09-09 15:31:43.0990,01:31,10,1,2023-09-09 15:32:02.7000,1694291522.700262,-0.00043569316039793193,-0.006200371775776148,-0.0007832356495782733,0.0140380859375,0.0039520263671875,-1.0006103515625,104.9503173828125,-26.738525390625,-39.57984924316406,2023-09-09 15:32:02.2790,1694291522.278984,-0.0007696649990975857,0.010377928614616394,-0.0036340607330203056,-0.7604066133499146,-0.5519562363624573,0.3462831377983093,
0,2023-09-09 15:31:43.0990,01:31,10,1,2023-09-09 15:32:02.8000,1694291522.800467,-0.002305498579517007,-0.003576359013095498,-0.0022738068364560604,0.01422119140625,0.0037384033203125,-1.001922607421875,105.15776062011719,-26.640655517578125,-39.69377136230469,2023-09-09 15:32:02.3790,1694291522.37882,-0.00041153631173074245,0.0010740417055785656,-0.002188730053603649,-0.7595064640045166,-0.5434571504592896,0.34350621700286865,
0,2023-09-09 15:31:43.0990,01:31,10,1,2023-09-09 15:32:02.9000,1694291522.9002972,-0.0008793757879175246,-0.0037768951151520014,-5.379585491027683e-05,0.0137939453125,0.0046234130859375,-1.001251220703125,105.01744079589844,-26.500381469726562,-39.319580078125,2023-09-09 15:32:02.4790,1694291522.478846,0.004917582031339407,-0.00938792061060667,0.009071714244782925,-0.7571565508842468,-0.550033688545227,0.3467409610748291,
0,2023-09-09 15:31:43.0990,01:31,10,1,2023-09-09 15:32:03.0000,1694291523.000492,-0.0003206445835530758,-0.0028852687682956457,-0.0005733785801567137,0.013458251953125,0.00445556640625,-1.0000152587890625,104.97415161132812,-26.507369995117188,-39.401336669921875,2023-09-09 15:32:02.5780,1694291522.578477,0.0017428278224542737,-0.0030764956027269363,-0.005104691255837679,-0.755355954170227,-0.551681637763977,0.3500368893146515,
0,2023-09-09 15:31:43.0990,01:31,10,1,2023-09-09 15:32:03.1000,1694291523.100285,-0.003216566052287817,-0.006116215605288744,-0.0015643407823517919,0.0145111083984375,0.003936767578125,-1.0002593994140625,104.99362182617188,-26.68511962890625,-39.57875061035156,2023-09-09 15:32:02.6780,1694291522.678361,1.0907649993896484e-05,-0.0013524983078241348,-0.0030451028142124414,-0.7619325518608093,-0.5430908799171448,0.3475344777107239,
0,2023-09-09 15:31:43.0990,01:31,10,1,2023-09-09 15:32:03.2010,1694291523.20126,-0.004736698232591152,-0.004021373111754656,-0.002273274352774024,0.0137786865234375,0.0039215087890625,-1.00152587890625,105.00112915039062,-26.850051879882812,-39.4326171875,2023-09-09 15:32:02.7780,1694291522.778163,-0.0025405341293662786,-0.002579948864877224,-0.0004188930615782738,-0.756790280342102,-0.5424805879592896,0.3472597301006317,
0,2023-09-09 15:31:43.0990,01:31,10,1,2023-09-09 15:32:03.3010,1694291523.300994,-0.0010330402292311192,-0.005730856209993362,-0.00253399764187634,0.014068603515625,0.0034332275390625,-1.0015411376953125,105.11691284179688,-26.726333618164062,-39.21632385253906,2023-09-09 15:32:02.8780,1694291522.877996,0.00547558069229126,0.003119216300547123,-0.0034385179169476032,-0.7541048526763916,-0.5516663789749146,0.3504641056060791,
0,2023-09-09 15:31:43.0990,01:31,10,1,2023-09-09 15:32:03.4000,1694291523.4002829,4.340952364145778e-05,-0.0021347899455577135,0.0011472897604107857,0.01434326171875,0.0032196044921875,-1.0015716552734375,104.91458129882812,-26.62640380859375,-39.029541015625,2023-09-09 15:32:02.9780,1694291522.977837,0.004159113857895136,0.01134026050567627,-0.0064977905713021755,-0.7583619952201843,-0.5475770235061646,0.3475039601325989,
0,2023-09-09 15:31:43.0990,01:31,10,1,2023-09-09 15:32:03.5000,1694291523.500287,4.340952364145778e-05,-0.0021347899455577135,0.0011472897604107857,0.0144500732421875,0.00335693359375,-1.001617431640625,104.83633422851562,-26.467544555664062,-39.52894592285156,2023-09-09 15:32:03.0780,1694291523.0775142,-0.0020122292917221785,0.0032841991633176804,0.0007300280267372727,-0.757965087890625,-0.546661376953125,0.3538210093975067,
0,2023-09-09 15:31:43.0990,01:31,10,1,2023-09-09 15:32:03.6000,1694291523.6002722,-0.00044314999831840396,-0.005003280472010374,-0.001416269107721746,0.01470947265625,0.00372314453125,-1.00152587890625,105.05020141601562,-26.328262329101562,-39.5089111328125,2023-09-09 15:32:03.1780,1694291523.177544,0.014223266392946243,-0.004530181176960468,-0.00620088167488575,-0.760452389717102,-0.5399627685546875,0.3482363522052765,
0,2023-09-09 15:31:43.0990,01:31,10,1,2023-09-09 15:32:03.6980,1694291523.6979241,-0.0007603325066156685,-0.0008141283178701997,-0.0031883365008980036,0.0138397216796875,0.0033416748046875,-1.000701904296875,105.00323486328125,-26.50885009765625,-39.475189208984375,2023-09-09 15:32:03.2770,1694291523.277287,0.013008864596486092,0.003579410258680582,-0.0010412735864520073,-0.7573702335357666,-0.5545045137405396,0.3465730547904968,
0,2023-09-09 15:31:43.0990,01:31,10,1,2023-09-09 15:32:03.8010,1694291523.800544,-0.0024551681708544493,-0.005813680589199066,-0.002590989461168647,0.013916015625,0.0037689208984375,-1.0006866455078125,104.99783325195312,-26.533981323242188,-39.36247253417969,2023-09-09 15:32:03.3770,1694291523.3772202,0.004204121418297291,0.0009246375411748886,-0.0008561507565900683,-0.7616578340530396,-0.5455628037452698,0.3476412892341614,
0,2023-09-09 15:31:43.0990,01:31,10,1,2023-09-09 15:32:03.9000,1694291523.90035,0.00046578687033616006,-0.005123123060911894,-0.0007432882557623088,0.013946533203125,0.00323486328125,-1.0010986328125,105.1063232421875,-26.61383056640625,-39.46903991699219,2023-09-09 15:32:03.4770,1694291523.4769711,-0.006832151673734188,-0.0010929722338914871,0.0038772854022681713,-0.7592468857765198,-0.544769287109375,0.355331689119339,
0,2023-09-09 15:31:43.0990,01:31,10,1,2023-09-09 15:32:04.0010,1694291524.0005422,-0.0016386429779231548,-0.005210208240896463,-0.002507898723706603,0.013671875,0.003662109375,-1.00164794921875,105.17556762695312,-26.865402221679688,-39.242034912109375,2023-09-09 15:32:03.5770,1694291523.576849,0.023806650191545486,-0.007919586263597012,0.0003919063601642847,-0.7536776065826416,-0.5496217012405396,0.34768709540367126,
0,2023-09-09 15:31:43.0990,01:31,10,1,2023-09-09 15:32:04.1010,1694291524.100821,0.0004391552647575736,-0.0033483924344182014,-0.0006556702428497374,0.01416015625,0.0038299560546875,-1.0005645751953125,105.0882568359375,-26.653167724609375,-39.457672119140625,2023-09-09 15:32:03.6760,1694291523.676484,0.04144596308469772,-0.00529078021645546,-0.00952683761715889,-0.7613069415092468,-0.545791745185852,0.3489230275154114,
0,2023-09-09 15:31:43.0990,01:31,10,1,2023-09-09 15:32:04.2000,1694291524.200498,0.0011851066956296563,-0.0036570527590811253,-0.0006823018775321543,0.0141754150390625,0.0028839111328125,-1.000701904296875,104.94837951660156,-26.457382202148438,-39.26521301269531,2023-09-09 15:32:03.7770,1694291523.776587,0.012256521731615067,-0.005540585145354271,0.003642694093286991,-0.7623597979545593,-0.5489807724952698,0.3533632159233093,
0,2023-09-09 15:31:43.0990,01:31,10,1,2023-09-09 15:32:04.3010,1694291524.300551,-0.00021225394448265433,-0.004307929426431656,-0.0030543794855475426,0.013946533203125,0.002899169921875,-1.0020751953125,105.099365234375,-26.8304443359375,-39.71002197265625,2023-09-09 15:32:03.8760,1694291523.876317,0.007276942953467369,0.000264572910964489,-0.004699924495071173,-0.7564698457717896,-0.5455475449562073,0.3567049205303192,
0,2023-09-09 15:31:43.0990,01:31,10,1,2023-09-09 15:32:04.4000,1694291524.400393,-0.000669252360239625,-0.0046996804885566235,-0.0023907197173684835,0.0136871337890625,0.0041351318359375,-1.0011749267578125,104.94337463378906,-26.439727783203125,-39.79048156738281,2023-09-09 15:32:03.9760,1694291523.976193,0.007611901964992285,0.002761419862508774,-0.010633546859025955,-0.7633668184280396,-0.5444641709327698,0.3529054820537567,
0,2023-09-09 15:31:43.0990,01:31,10,1,2023-09-09 15:32:04.5010,1694291524.500695,-0.0019481023773550987,-0.0038866172544658184,-0.0024322650860995054,0.0141448974609375,0.00372314453125,-1.0009002685546875,105.2408447265625,-26.773101806640625,-39.70271301269531,2023-09-09 15:32:04.0760,1694291524.0760431,0.011041654273867607,-0.0009827185422182083,-0.011226832866668701,-0.7660678029060364,-0.5431519746780396,0.3539125323295593,
0,2023-09-09 15:31:43.0990,01:31,10,1,2023-09-09 15:32:04.6000,1694291524.600432,-0.00043809000635519624,-0.0038272286765277386,-0.00512738386169076,0.0141448974609375,0.00372314453125,-1.0009002685546875,104.99835205078125,-26.728775024414062,-39.430389404296875,2023-09-09 15:32:04.1760,1694291524.175949,-0.005619880277663469,0.0023643425665795803,0.016591215506196022,-0.7540895342826843,-0.5452881455421448,0.3583833873271942,
0,2023-09-09 15:31:43.0990,01:31,10,1,2023-09-09 15:32:04.6980,1694291524.697977,-0.0018703379901126027,-0.007840080186724663,-0.000657534459605813,0.01361083984375,0.0031890869140625,-1.00079345703125,104.9378662109375,-26.685195922851562,-39.67022705078125,2023-09-09 15:32:04.2760,1694291524.275755,-0.0005730572156608105,-0.0015851249918341637,-0.002458574716001749,-0.7468264698982239,-0.5490113496780396,0.3517001271247864,
0,2023-09-09 15:31:43.0990,01:31,10,1,2023-09-09 15:32:04.8000,1694291524.800472,-0.0010514160385355353,-0.004157460760325193,-0.0031619712244719267,0.0142364501953125,0.004058837890625,-1.0005645751953125,105.10787963867188,-27.045440673828125,-39.7098388671875,2023-09-09 15:32:04.3760,1694291524.375543,0.025847166776657104,0.0006984020583331585,-0.0029060193337500095,-0.7644044756889343,-0.5397034883499146,0.3485414385795593,
0,2023-09-09 15:31:43.0990,01:31,10,1,2023-09-09 15:32:04.9000,1694291524.900392,-0.0005307680112309754,-0.004733502399176359,-0.001817873795516789,0.0135498046875,0.00372314453125,-1.001556396484375,105.16203308105469,-26.887176513671875,-39.208343505859375,2023-09-09 15:32:04.4760,1694291524.4757009,-0.005784863140434027,-0.005517548881471157,0.0005097845569252968,-0.7536166310310364,-0.5435640215873718,0.3581240773200989,
0,2023-09-09 15:31:43.0990,01:31,10,1,2023-09-09 15:32:05.0010,1694291525.000651,0.0012833772925660014,-0.006621683482080698,-0.00033449303009547293,0.01416015625,0.0040740966796875,-1.001434326171875,105.12387084960938,-26.809814453125,-39.237518310546875,2023-09-09 15:32:04.5750,1694291524.575358,0.003836405463516712,0.0017516822554171085,0.00857353676110506,-0.751907467842102,-0.5516358017921448,0.3462374210357666,
0,2023-09-09 15:31:43.0990,01:31,10,1,2023-09-09 15:32:05.1000,1694291525.100477,-0.0023307986557483673,-0.004502073861658573,-0.001341966912150383,0.01385498046875,0.0040740966796875,-1.0009002685546875,105.11686706542969,-26.785110473632812,-39.49540710449219,2023-09-09 15:32:04.6750,1694291524.675277,0.019405510276556015,-0.011605667881667614,0.023986315354704857,-0.757843017578125,-0.5455170273780823,0.3484499454498291,
0,2023-09-09 15:31:43.0990,01:31,10,1,2023-09-09 15:32:05.1990,1694291525.198567,8.708536915946752e-05,-0.0017981663113459945,-0.0029814087320119143,0.014434814453125,0.0037994384765625,-1.001983642578125,105.10223388671875,-26.709014892578125,-39.58892822265625,2023-09-09 15:32:04.7750,1694291524.77491,-0.003897814080119133,-0.0031546587124466896,0.04675934091210365,-0.7579501271247864,-0.5425722002983093,0.36329683661460876,
0,2023-09-09 15:31:43.0990,01:31,10,1,2023-09-09 15:32:05.2990,1694291525.2990131,-0.0007656587986275554,-0.005479986313730478,-0.003897269954904914,0.0145416259765625,0.0038299560546875,-1.0014190673828125,105.09971618652344,-26.722076416015625,-39.32106018066406,2023-09-09 15:32:04.8750,1694291524.874778,0.0020869080908596516,0.03160372003912926,0.027898797765374184,-0.7608948349952698,-0.531829833984375,0.3546144962310791,
0,2023-09-09 15:31:43.0990,01:31,10,1,2023-09-09 15:32:05.4000,1694291525.3997931,-0.0010996191995218396,-0.004588626325130463,-0.001714010490104556,0.0133819580078125,0.0033416748046875,-1.00103759765625,105.18106079101562,-26.870925903320312,-39.5810546875,2023-09-09 15:32:04.9750,1694291524.9747381,0.005390692502260208,0.027504051104187965,0.03678117319941521,-0.764862060546875,-0.5407257676124573,0.3516084551811218,
0,2023-09-09 15:31:43.0990,01:31,10,1,2023-09-09 15:32:05.5000,1694291525.500318,-0.0012783173006027937,-0.005315669346600771,-0.0054815844632685184,0.0142364501953125,0.00341796875,-1.002166748046875,105.14401245117188,-26.600860595703125,-39.522125244140625,2023-09-09 15:32:05.0750,1694291525.0745091,0.00486232154071331,-0.002383274957537651,0.02794507145881653,-0.7762757539749146,-0.5266419649124146,0.3463441729545593,
0,2023-09-09 15:31:43.0990,01:31,10,1,2023-09-09 15:32:05.6000,1694291525.5999742,0.0014642059104517102,-0.004769188817590475,-0.00011717908637365326,0.0135040283203125,0.0039520263671875,-1.0011138916015625,105.06329345703125,-26.85443115234375,-39.554931640625,2023-09-09 15:32:05.1740,1694291525.1743522,0.021006736904382706,-0.022829826921224594,0.01892664097249508,-0.7675630450248718,-0.5311432480812073,0.3512270450592041,
0,2023-09-09 15:31:43.0990,01:31,10,1,2023-09-09 15:32:05.7000,1694291525.7004662,-0.002424009144306183,-0.005801696330308914,-0.002389121800661087,0.0142974853515625,0.0036468505859375,-1.001739501953125,105.14399719238281,-26.561614990234375,-39.63299560546875,2023-09-09 15:32:05.2740,1694291525.27408,0.0034722844138741493,0.003998192027211189,-0.026600396260619164,-0.7668458819389343,-0.532730221748352,0.351303368806839,
0,2023-09-09 15:31:43.0990,01:31,10,1,2023-09-09 15:32:05.7980,1694291525.7983851,-0.001478587044402957,-0.003084739437326789,-0.0012500877492129803,0.013885498046875,0.0037078857421875,-1.0015106201171875,104.93025207519531,-26.6895751953125,-39.62962341308594,2023-09-09 15:32:05.3740,1694291525.374114,-0.00395240867510438,-0.026736952364444733,-0.010889044031500816,-0.7605591416358948,-0.5376129746437073,0.3513796627521515,
0,2023-09-09 15:31:43.0990,01:31,10,1,2023-09-09 15:32:05.9000,1694291525.9003801,5.219795639277436e-05,-0.005736448802053928,-0.001722532557323575,0.0137786865234375,0.0030670166015625,-1.0016937255859375,105.12924194335938,-26.715011596679688,-39.76959228515625,2023-09-09 15:32:05.4750,1694291525.4747128,-0.004180908203125,-0.012054410763084888,-0.017920056357979774,-0.7627412676811218,-0.5378723740577698,0.3558809161186218,
0,2023-09-09 15:31:43.0990,01:31,10,1,2023-09-09 15:32:06.0000,1694291526.000485,-0.0028218855150043964,-0.004251736681908369,-0.0007837683078832924,0.014801025390625,0.0041961669921875,-1.0015106201171875,105.14442443847656,-26.657196044921875,-39.88328552246094,2023-09-09 15:32:05.5740,1694291525.5736089,-0.006569364108145237,-0.0101963235065341,0.013180805370211601,-0.7509157657623291,-0.5412293672561646,0.3616640865802765,
0,2023-09-09 15:31:43.0990,01:31,10,1,2023-09-09 15:32:06.1010,1694291526.1005092,-0.002549710450693965,-0.0024074974935501814,-0.0016607472207397223,0.014373779296875,0.003082275390625,-1.00128173828125,105.06941223144531,-26.606918334960938,-39.84014892578125,2023-09-09 15:32:05.6740,1694291525.6735458,-0.01073787733912468,0.007755246479064226,-0.003614753019064665,-0.7606204152107239,-0.5326539278030396,0.36204564571380615,
0,2023-09-09 15:31:43.0990,01:31,10,1,2023-09-09 15:32:06.2000,1694291526.200478,1.8642127770363004e-06,-0.0037587855476886034,-7.243797881528735e-05,0.0146331787109375,0.0036773681640625,-1.00164794921875,105.00791931152344,-26.841552734375,-39.680877685546875,2023-09-09 15:32:05.7730,1694291525.773337,0.0065157450735569,-0.007256593555212021,0.003952586092054844,-0.7709657549858093,-0.533676266670227,0.3496706783771515,
0,2023-09-09 15:31:43.0990,01:31,10,1,2023-09-09 15:32:06.2990,1694291526.298693,-0.002624545246362686,-0.003037867834791541,0.00039468047907575965,0.0138092041015625,0.0042877197265625,-1.0016937255859375,105.08062744140625,-26.787124633789062,-39.79057312011719,2023-09-09 15:32:05.8730,1694291525.873289,0.004590412601828575,-0.011994356289505959,0.0028334592934697866,-0.7651063203811646,-0.5320130586624146,0.3607333302497864,
0,2023-09-09 15:31:43.0990,01:31,10,1,2023-09-09 15:32:06.4010,1694291526.401043,-2.50337143370416e-05,-0.005885586142539978,3.1691615731688216e-05,0.0139617919921875,0.0033721923828125,-1.0017242431640625,105.17459106445312,-26.567703247070312,-39.88212585449219,2023-09-09 15:32:05.9730,1694291525.973011,0.005535302683711052,0.00023168325424194336,-0.0055601587519049644,-0.7615051865577698,-0.53497314453125,0.35774242877960205,
0,2023-09-09 15:31:43.0990,01:31,10,1,2023-09-09 15:32:06.5000,1694291526.500385,-0.0011270497925579548,-0.006232329644262791,-0.0016564861871302128,0.01397705078125,0.0043487548828125,-1.00140380859375,105.15965270996094,-27.002670288085938,-39.34947204589844,2023-09-09 15:32:06.0730,1694291526.072937,-0.007020836230367422,0.00032036658376455307,-0.010222621262073517,-0.7621768116950989,-0.536422848701477,0.3593447506427765,
0,2023-09-09 15:31:43.0990,01:31,10,1,2023-09-09 15:32:06.6000,1694291526.600428,0.0009161274065263569,-0.005093828309327364,-0.003034938359633088,0.014495849609375,0.004058837890625,-1.001708984375,105.12405395507812,-26.930526733398438,-39.741973876953125,2023-09-09 15:32:06.1730,1694291526.1725821,0.013725453987717628,-0.019274374470114708,-0.005762758664786816,-0.7612305879592896,-0.5333405137062073,0.3539888560771942,
0,2023-09-09 15:31:43.0990,01:31,10,1,2023-09-09 15:32:06.6980,1694291526.698139,-0.002364886924624443,-0.0038535939529538155,-1.2783173588104546e-05,0.0141143798828125,0.0036773681640625,-1.000732421875,105.07334899902344,-26.858627319335938,-39.32318115234375,2023-09-09 15:32:06.2720,1694291526.272409,0.001534968032501638,-0.00767044723033905,-0.004312068223953247,-0.7576754689216614,-0.537429928779602,0.364822655916214,
0,2023-09-09 15:31:43.0990,01:31,10,1,2023-09-09 15:32:06.8010,1694291526.800575,0.0009590042755007744,-0.002814695006236434,-0.0011952266795560718,0.014068603515625,0.003692626953125,-1.0017242431640625,105.08819580078125,-26.71185302734375,-39.70489501953125,2023-09-09 15:32:06.3720,1694291526.372231,-0.003864058293402195,0.009350347332656384,-0.009520279243588448,-0.7624208927154541,-0.5351259112358093,0.3601992726325989,
0,2023-09-09 15:31:43.0990,01:31,10,1,2023-09-09 15:32:06.9010,1694291526.90057,0.001540904981084168,-0.006311425473541021,-0.0009536779834888875,0.013916015625,0.0037078857421875,-1.000823974609375,105.005859375,-26.455230712890625,-39.47178649902344,2023-09-09 15:32:06.4720,1694291526.472447,-0.0006336439400911331,-0.009452369064092636,-0.0015132192056626081,-0.7613525390625,-0.5373383164405823,0.3612979054450989,
0,2023-09-09 15:31:43.0990,01:31,10,1,2023-09-09 15:32:07.0000,1694291526.9999418,-0.0023284016642719507,-0.0029111013282090425,-0.001654622028581798,0.013580322265625,0.003814697265625,-1.0012664794921875,105.16656494140625,-26.673736572265625,-39.411224365234375,2023-09-09 15:32:06.5720,1694291526.571982,-0.014503386802971363,-0.0029689036309719086,-0.020044691860675812,-0.7586671710014343,-0.533950924873352,0.3672640919685364,
0,2023-09-09 15:31:43.0990,01:31,10,1,2023-09-09 15:32:07.1010,1694291527.1005468,-0.0023933828342705965,-0.003237072378396988,-0.0020335898734629154,0.0139923095703125,0.0041351318359375,-1.0016937255859375,105.11668395996094,-26.7210693359375,-39.50129699707031,2023-09-09 15:32:06.6720,1694291526.671774,-0.007187683135271072,0.0019209268502891064,-0.0012643467634916306,-0.758438229560852,-0.5307007431983948,0.3624727427959442,
0,2023-09-09 15:31:43.0990,01:31,10,1,2023-09-09 15:32:07.2010,1694291527.200552,0.0003981425834354013,-0.004138552118092775,-0.00041731735109351575,0.0142059326171875,0.00286865234375,-1.0013885498046875,105.10710144042969,-26.674362182617188,-39.628448486328125,2023-09-09 15:32:06.7720,1694291526.77169,-0.0035631877835839987,0.00331096351146698,-0.008090261369943619,-0.7559052109718323,-0.5431366562843323,0.3576052784919739,
0,2023-09-09 15:31:43.0990,01:31,10,1,2023-09-09 15:32:07.3010,1694291527.300637,-0.00011584750609472394,-0.004007791168987751,0.00039521310827694833,0.014068603515625,0.0044097900390625,-1.001861572265625,105.12322998046875,-26.61676025390625,-39.57792663574219,2023-09-09 15:32:06.8720,1694291526.871505,0.0008750366978347301,0.001677779946476221,-0.0039442856796085835,-0.754867672920227,-0.5416412949562073,0.3555606007575989,
0,2023-09-09 15:31:43.0990,01:31,10,1,2023-09-09 15:32:07.4000,1694291527.400414,0.00026258768048137426,-0.0057737333700060844,-0.0016887104138731956,0.0145263671875,0.003997802734375,-1.0001983642578125,105.13716125488281,-26.356704711914062,-39.44081115722656,2023-09-09 15:32:06.9710,1694291526.971208,-0.006203312426805496,0.0013111960142850876,-0.013986034318804741,-0.7579652667045593,-0.5408936738967896,0.3550569415092468,
0,2023-09-09 15:31:43.0990,01:31,10,1,2023-09-09 15:32:07.5000,1694291527.5002441,-0.0006242449744604528,-0.0019923108629882336,-0.0021134845446795225,0.014556884765625,0.003753662109375,-1.001373291015625,105.09797668457031,-26.881378173828125,-39.5601806640625,2023-09-09 15:32:07.0710,1694291527.0710359,-0.005556031130254269,0.004158115480095148,-0.03302810341119766,-0.7540589570999146,-0.543747067451477,0.3568880259990692,
0,2023-09-09 15:31:43.0990,01:31,10,1,2023-09-09 15:32:07.6000,1694291527.600337,-0.0007488809060305357,-0.003320429241284728,-0.004178233444690704,0.0144805908203125,0.00372314453125,-1.0013885498046875,105.00460815429688,-26.6923828125,-39.45439147949219,2023-09-09 15:32:07.1710,1694291527.1708841,-0.011829306371510029,0.0105650145560503,-0.02580910362303257,-0.7593080997467041,-0.551986813545227,0.353836327791214,
0,2023-09-09 15:31:43.0990,01:31,10,1,2023-09-09 15:32:07.7010,1694291527.7005339,-0.0004924184759147465,-0.00475320965051651,-0.0018679412314668298,0.0141143798828125,0.0030975341796875,-1.002166748046875,105.12451171875,-26.5831298828125,-39.71174621582031,2023-09-09 15:32:07.2710,1694291527.2707329,0.006791914813220501,-0.004473323002457619,-0.022142132744193077,-0.7584231495857239,-0.5537110567092896,0.3556826710700989,
0,2023-09-09 15:31:43.0990,01:31,10,1,2023-09-09 15:32:07.8010,1694291527.800508,-0.00014940333494450897,-0.005372927524149418,-0.0035752938129007816,0.01434326171875,0.0037078857421875,-1.001312255859375,105.24945068359375,-26.53594970703125,-39.58790588378906,2023-09-09 15:32:07.3710,1694291527.370569,-0.01806163787841797,0.01025901734828949,0.003619224764406681,-0.7498019337654114,-0.5462343096733093,0.35270723700523376,
0,2023-09-09 15:31:43.0990,01:31,10,1,2023-09-09 15:32:07.9000,1694291527.9004478,-0.0034639735240489244,-0.005377188324928284,8.442220860160887e-05,0.0145263671875,0.004302978515625,-1.0007781982421875,105.07441711425781,-26.796066284179688,-39.70167541503906,2023-09-09 15:32:07.4730,1694291527.4727821,0.006962823681533337,0.009185098111629486,-0.0035866566468030214,-0.7533113956451416,-0.5531007051467896,0.351333886384964,
0,2023-09-09 15:31:43.0990,01:31,10,1,2023-09-09 15:32:08.0000,1694291528.0004349,0.00033582461765035987,-0.0007776430575177073,-0.002442118711769581,0.013519287109375,0.0040740966796875,-1.000701904296875,105.04750061035156,-26.550857543945312,-39.627899169921875,2023-09-09 15:32:07.5700,1694291527.570296,-0.002542930655181408,0.006877468898892403,-0.0018311672611162066,-0.7597810626029968,-0.5497437715530396,0.357986718416214,
0,2023-09-09 15:31:43.0990,01:31,10,1,2023-09-09 15:32:08.1000,1694291528.10036,-0.0013936321483924985,-0.0035899411886930466,-0.0005014732014387846,0.0137939453125,0.00384521484375,-1.001953125,105.06532287597656,-26.561553955078125,-39.541168212890625,2023-09-09 15:32:07.6700,1694291527.669997,0.00021144351921975613,-0.0042979540303349495,0.0037881690077483654,-0.7504426836967468,-0.543777585029602,0.35218825936317444,
0,2023-09-09 15:31:43.0990,01:31,10,1,2023-09-09 15:32:08.2010,1694291528.2005801,0.002228266792371869,-0.004631503485143185,-0.002662894781678915,0.014617919921875,0.0029144287109375,-1.0013275146484375,105.05531311035156,-26.738189697265625,-39.457427978515625,2023-09-09 15:32:07.7700,1694291527.76984,0.005170515738427639,-0.020444698631763458,0.001930747414007783,-0.7477418780326843,-0.547653317451477,0.35145601630210876,
0,2023-09-09 15:31:43.0990,01:31,10,1,2023-09-09 15:32:08.3010,1694291528.300993,-0.000892425247002393,-0.004200071096420288,-0.0013289173366501927,0.0142822265625,0.0035858154296875,-1.0015869140625,105.16615295410156,-26.881866455078125,-39.184539794921875,2023-09-09 15:32:07.8700,1694291527.869697,-0.002435472095385194,0.007837272249162197,-0.01054949127137661,-0.7503815293312073,-0.5586089491844177,0.35356155037879944,
0,2023-09-09 15:31:43.0990,01:31,10,1,2023-09-09 15:32:08.4000,1694291528.400356,0.0006809702608734369,-0.006937268190085888,-0.0012639362830668688,0.0135955810546875,0.0038909912109375,-1.00250244140625,105.18278503417969,-26.817062377929688,-39.31599426269531,2023-09-09 15:32:07.9700,1694291527.9695191,-0.0019029064569622278,0.009916535578668118,-0.004171187058091164,-0.7546082735061646,-0.5539856553077698,0.3501894176006317,
0,2023-09-09 15:31:43.0990,01:31,10,1,2023-09-09 15:32:08.4990,1694291528.4990659,0.0002868224401026964,-0.00446825148537755,-0.002478870330378413,0.0147247314453125,0.0039215087890625,-1.001953125,105.04588317871094,-26.696670532226562,-39.34913635253906,2023-09-09 15:32:08.0690,1694291528.0693588,-0.004288233816623688,-0.01007674727588892,0.012426531873643398,-0.7440186738967896,-0.5521393418312073,0.3609926402568817,
0,2023-09-09 15:31:43.0990,01:31,10,1,2023-09-09 15:32:08.6000,1694291528.600371,0.00037390782381407917,-0.005044825840741396,-0.0010961571242660284,0.0136260986328125,0.003936767578125,-1.001220703125,105.02545166015625,-26.5631103515625,-39.37431335449219,2023-09-09 15:32:08.1690,1694291528.169032,-0.020320264622569084,0.014776005409657955,-0.020829791203141212,-0.7628633975982666,-0.5443727374076843,0.3596804738044739,
0,2023-09-09 15:31:43.0990,01:31,10,1,2023-09-09 15:32:08.7010,1694291528.700526,0.0003158508916385472,-0.0051630702801048756,-0.003005377249792218,0.014739990234375,0.00390625,-1.0012969970703125,104.89601135253906,-26.466812133789062,-39.27876281738281,2023-09-09 15:32:08.2690,1694291528.2690759,-0.004192359745502472,0.013533507473766804,-0.006655017379671335,-0.7534332275390625,-0.5578613877296448,0.3523867726325989,
0,2023-09-09 15:31:43.0990,01:31,10,1,2023-09-09 15:32:08.8010,1694291528.8005981,-0.000827177835162729,-0.00401657959446311,-0.0012306467397138476,0.013885498046875,0.004058837890625,-1.00091552734375,104.87382507324219,-26.539779663085938,-39.336669921875,2023-09-09 15:32:08.3690,1694291528.3689861,0.020916057750582695,-0.017829474061727524,0.0051251426339149475,-0.7563478946685791,-0.5583650469779968,0.3467409014701843,
0,2023-09-09 15:31:43.0990,01:31,10,1,2023-09-09 15:32:08.9010,1694291528.900662,0.000568318588193506,-0.00404534162953496,-0.0020458402577787638,0.0139312744140625,0.003936767578125,-1.0016632080078125,105.13726806640625,-26.818862915039062,-39.37757873535156,2023-09-09 15:32:08.4690,1694291528.469454,-0.008337370119988918,0.008918382227420807,-0.0024242864456027746,-0.7512210011482239,-0.5514833331108093,0.3573305010795593,
0,2023-09-09 15:31:43.0990,01:31,10,1,2023-09-09 15:32:09.0010,1694291529.000648,-0.001675128354690969,-0.0011142665753141046,-0.005841377656906843,0.0140228271484375,0.003753662109375,-1.0013885498046875,105.11509704589844,-26.921127319335938,-39.72837829589844,2023-09-09 15:32:08.5680,1694291528.56843,-9.169080294668674e-05,-0.012108871713280678,-0.0029507933650165796,-0.7521973848342896,-0.5520936250686646,0.3515474796295166,
0,2023-09-09 15:31:43.0990,01:31,10,1,2023-09-09 15:32:09.1010,1694291529.100543,0.0014849785948172212,-0.00381417921744287,-0.0017957695527002215,0.0145111083984375,0.0035247802734375,-1.0009765625,105.12045288085938,-26.833297729492188,-39.81036376953125,2023-09-09 15:32:08.6680,1694291528.6682181,0.006815883331000805,0.00091957813128829,-0.0028671040199697018,-0.7512208819389343,-0.5550537705421448,0.3536379635334015,
0,2023-09-09 15:31:43.0990,01:31,10,1,2023-09-09 15:32:09.2010,1694291529.20054,-0.0009890979854390025,-0.004887965973466635,-0.0028298748657107353,0.014556884765625,0.0036163330078125,-1.0013885498046875,105.19393920898438,-26.941802978515625,-39.94505310058594,2023-09-09 15:32:08.7680,1694291528.7679992,0.0026219370774924755,0.02320251241326332,0.0001364093041047454,-0.7502901554107666,-0.5574647784233093,0.35145604610443115,
0,2023-09-09 15:31:43.0990,01:31,10,1,2023-09-09 15:32:09.3010,1694291529.3005319,0.001019990653730929,-0.004156661685556173,-0.0018548916559666395,0.0137481689453125,0.0031585693359375,-1.0018310546875,105.18649291992188,-26.626327514648438,-39.94136047363281,2023-09-09 15:32:08.8680,1694291528.867964,-0.015146207064390182,0.017797494307160378,0.0042672716081142426,-0.7552493214607239,-0.5505067110061646,0.3498690724372864,
0,2023-09-09 15:31:43.0990,01:31,10,1,2023-09-09 15:32:09.4000,1694291529.400352,0.00044847631943412125,-0.0030389330349862576,-0.0008258462767116725,0.014434814453125,0.0042877197265625,-1.001220703125,105.13699340820312,-26.839630126953125,-39.73927307128906,2023-09-09 15:32:08.9680,1694291528.967753,0.003503976156935096,-0.021717824041843414,-5.507201422005892e-05,-0.7501986026763916,-0.5532838106155396,0.3533174693584442,
0,2023-09-09 15:31:43.0990,01:31,10,1,2023-09-09 15:32:09.5010,1694291529.500702,-0.001999767730012536,-0.0036535905674099922,5.699164830730297e-05,0.0136566162109375,0.0030975341796875,-1.000885009765625,105.19108581542969,-26.706787109375,-39.59124755859375,2023-09-09 15:32:09.0680,1694291529.067641,0.003299445379525423,-0.0071857525035738945,-0.0037362261209636927,-0.751266598701477,-0.5578461289405823,0.3559419512748718,
0,2023-09-09 15:31:43.0990,01:31,10,1,2023-09-09 15:32:09.6000,1694291529.60025,0.0005973470397293568,-0.004099670331925154,-0.0014583469601348042,0.0141448974609375,0.00341796875,-1.0008087158203125,105.05540466308594,-26.808700561523438,-39.67695617675781,2023-09-09 15:32:09.1680,1694291529.167574,0.01179632730782032,-0.015578570775687695,0.010554395616054535,-0.7534792423248291,-0.5474549531936646,0.3518983721733093,
0,2023-09-09 15:31:43.0990,01:31,10,1,2023-09-09 15:32:09.7000,1694291529.700139,0.0011574097443372011,-0.004698082339018583,-0.0023963123094290495,0.014068603515625,0.0039520263671875,-1.0014190673828125,105.10781860351562,-26.880172729492188,-39.48756408691406,2023-09-09 15:32:09.2670,1694291529.2673059,0.006008945405483246,-0.012818071991205215,-0.005882733967155218,-0.754470944404602,-0.5513153672218323,0.35325637459754944,
0,2023-09-09 15:31:43.0990,01:31,10,1,2023-09-09 15:32:09.8010,1694291529.800506,0.0004727110790554434,-0.0051955608651041985,-0.0008138620178215206,0.0139617919921875,0.00341796875,-1.001922607421875,105.04777526855469,-26.799514770507812,-39.520355224609375,2023-09-09 15:32:09.3670,1694291529.367145,0.0003945359494537115,6.989669054746628e-05,0.004781062249094248,-0.7568819522857666,-0.5579683184623718,0.35360750555992126,
0,2023-09-09 15:31:43.0990,01:31,10,1,2023-09-09 15:32:09.9010,1694291529.9005651,-0.0010990865994244814,-0.0032202943693846464,-0.0021552962716668844,0.01373291015625,0.0036163330078125,-1.0012969970703125,105.21519470214844,-26.755813598632812,-39.50035095214844,2023-09-09 15:32:09.4690,1694291529.468703,0.0015259133651852608,0.004631492309272289,0.0025979026686400175,-0.7426149249076843,-0.5524292588233948,0.356338769197464,
0,2023-09-09 15:31:43.0990,01:31,10,1,2023-09-09 15:32:10.0000,1694291530.000488,0.0013771206140518188,-0.003465837799012661,-0.002906307578086853,0.014678955078125,0.0034637451171875,-1.001678466796875,105.07344055175781,-26.49560546875,-39.38594055175781,2023-09-09 15:32:09.5670,1694291529.5668712,0.00029746361542493105,-0.0035442793741822243,0.004694310016930103,-0.7400819659233093,-0.560592770576477,0.3584901988506317,
0,2023-09-09 15:31:43.0990,01:31,10,1,2023-09-09 15:32:10.1000,1694291530.100426,-0.0009733853512443602,-0.0031281490810215473,-0.0010125337867066264,0.0137786865234375,0.00384521484375,-1.00091552734375,105.2017822265625,-26.727981567382812,-39.49955749511719,2023-09-09 15:32:09.6670,1694291529.666754,0.005319919437170029,-0.009884732775390148,0.012547039426863194,-0.753433346748352,-0.557998776435852,0.3551485240459442,
0,2023-09-09 15:31:43.0990,01:31,10,1,2023-09-09 15:32:10.2010,1694291530.2011971,-0.0013949638232588768,-0.005371329374611378,-0.0013883059145882726,0.0134735107421875,0.0043182373046875,-1.001129150390625,105.0458984375,-26.799423217773438,-39.36285400390625,2023-09-09 15:32:09.7660,1694291529.7664142,0.0029577617533504963,-0.024909889325499535,0.009358802810311317,-0.7520602345466614,-0.5459290742874146,0.3587953448295593,
0,2023-09-09 15:31:43.0990,01:31,10,1,2023-09-09 15:32:10.3000,1694291530.3004851,0.0026724820490926504,-0.004797684494405985,-0.0017249294323846698,0.0138702392578125,0.0036468505859375,-1.0019989013671875,105.13777160644531,-26.770736694335938,-39.28025817871094,2023-09-09 15:32:09.8660,1694291529.866303,-0.008138232864439487,-0.006296389736235142,-3.846036270260811e-05,-0.7515261769294739,-0.5483095645904541,0.36270177364349365,
0,2023-09-09 15:31:43.0990,01:31,10,1,2023-09-09 15:32:10.3990,1694291530.39873,-0.0002764361270237714,-0.0028796761762350798,-0.0006748450105078518,0.013885498046875,0.003570556640625,-1.00128173828125,105.1416015625,-26.76275634765625,-39.40966796875,2023-09-09 15:32:09.9660,1694291529.9659882,0.00013494433369487524,-0.004373720847070217,0.012960394844412804,-0.75531005859375,-0.5486755967140198,0.35826125741004944,
0,2023-09-09 15:31:43.0990,01:31,10,1,2023-09-09 15:32:10.5000,1694291530.4998531,-0.0010716560063883662,-0.002046905690804124,-0.0025960493367165327,0.0138702392578125,0.003997802734375,-1.001068115234375,105.056396484375,-26.486663818359375,-39.17182922363281,2023-09-09 15:32:10.0660,1694291530.06586,-0.002475952496752143,-0.0014640837907791138,0.0007379176095128059,-0.7497408390045166,-0.556869626045227,0.35841405391693115,
0,2023-09-09 15:31:43.0990,01:31,10,1,2023-09-09 15:32:10.6000,1694291530.599674,-0.0007448861724697053,-0.0023851271253079176,-0.0005707154050469398,0.0140380859375,0.003570556640625,-1.0015716552734375,105.20742797851562,-26.889312744140625,-39.85713195800781,2023-09-09 15:32:10.1660,1694291530.165691,-0.03245389088988304,0.02254204824566841,0.0034270777832716703,-0.7515718936920166,-0.5509340167045593,0.3723452389240265,
0,2023-09-09 15:31:43.0990,01:31,10,1,2023-09-09 15:32:10.7010,1694291530.700737,-0.0005699164466932416,-0.004544950556010008,-0.0032916669733822346,0.0142822265625,0.0035552978515625,-1.00115966796875,105.08854675292969,-26.560028076171875,-39.62117004394531,2023-09-09 15:32:10.2660,1694291530.265511,-0.049768634140491486,0.17862285673618317,-0.0513782799243927,-0.758346676826477,-0.5629119873046875,0.3335116505622864,
0,2023-09-09 15:31:43.0990,01:31,10,1,2023-09-09 15:32:10.8010,1694291530.800715,-0.0008231831016018987,-0.006126335822045803,-0.0026019082870334387,0.014129638671875,0.003265380859375,-1.0013427734375,105.09346008300781,-26.7069091796875,-39.47685241699219,2023-09-09 15:32:10.3650,1694291530.365405,0.033614009618759155,-0.12321501225233078,0.021292394027113914,-0.7617340683937073,-0.5660858154296875,0.304336816072464,
0,2023-09-09 15:31:43.0990,01:31,10,1,2023-09-09 15:32:10.9000,1694291530.9004931,-0.001207477180287242,-0.004512193612754345,-0.0035712989047169685,0.014129638671875,0.00335693359375,-1.0004730224609375,105.1044921875,-26.79888916015625,-39.63151550292969,2023-09-09 15:32:10.4670,1694291530.467187,0.0458475723862648,-0.11384588479995728,0.031911980360746384,-0.7476654648780823,-0.5424652695655823,0.3793641924858093,
0,2023-09-09 15:31:43.0990,01:31,10,1,2023-09-09 15:32:11.0010,1694291531.0007238,-0.0010522148804739118,-0.00440939562395215,-0.00410473020747304,0.014373779296875,0.003692626953125,-1.00146484375,105.17874145507812,-26.585723876953125,-39.71598815917969,2023-09-09 15:32:10.5650,1694291530.5651731,-0.02096734568476677,0.0461532361805439,-0.010375586338341236,-0.747940182685852,-0.5531922578811646,0.3635866045951843,
