SessionID,SessionDate,SessionDuration,SessionFrequency,RecordID,Timestamp,timeIntervalSince1970,GyroX,GyroY,GyroZ,AccX,AccY,AccZ,MagX,MagY,MagZ,WatchTimestamp,WatchtImeIntervalSince1970,WatchGyroX,WatchGyroY,WatchGyroZ,WatchAccX,WatchAccY,WatchAccZ
0,2023-09-09 22:11:39.1360,02:25,10,1,2023-09-09 22:11:39.2380,1694315499.238223,0.0004822984628845006,-0.005770004820078611,0.0002383529208600521,0.047943115234375,-0.0734100341796875,-1.001007080078125,112.04043579101562,-29.116912841796875,-36.89129638671875,2023-09-09 22:11:38.9230,1694315498.923423,-0.0807647705078125,0.059341952204704285,-0.03393245488405228,-0.025192268192768097,-0.428436279296875,-0.8997955918312073,
0,2023-09-09 22:11:39.1360,02:25,10,1,2023-09-09 22:11:39.3370,1694315499.3370829,-0.00387330143712461,-0.0006527407676912844,-0.0018809906905516982,0.048919677734375,-0.0726470947265625,-0.99908447265625,111.81622314453125,-29.054794311523438,-37.85047912597656,2023-09-09 22:11:39.0190,1694315499.0188131,-0.05391211807727814,0.028071384876966476,-0.013236365281045437,-0.044525146484375,-0.4334869384765625,-0.9034881591796875,
0,2023-09-09 22:11:39.1360,02:25,10,1,2023-09-09 22:11:39.4370,1694315499.43698,4.820321555598639e-05,-0.005253884010016918,-0.00358754419721663,0.0459747314453125,-0.071075439453125,-0.9959259033203125,111.85409545898438,-28.773712158203125,-38.041259765625,2023-09-09 22:11:39.1210,1694315499.120882,0.022272467613220215,-0.016558267176151276,-0.006391807924956083,-0.026092529296875,-0.41424560546875,-0.8951263427734375,
0,2023-09-09 22:11:39.1360,02:25,10,1,2023-09-09 22:11:39.5360,1694315499.5359359,0.002082591876387596,-0.004311391618102789,-0.0014303837670013309,0.04547119140625,-0.0703277587890625,-0.99468994140625,111.93751525878906,-29.329421997070312,-37.56260681152344,2023-09-09 22:11:39.2150,1694315499.215361,-0.04953201115131378,0.0013257898390293121,-0.0003317519440315664,-0.0376281663775444,-0.4177703857421875,-0.9104157090187073,
0,2023-09-09 22:11:39.1360,02:25,10,1,2023-09-09 22:11:39.6370,1694315499.637442,-0.00219551008194685,-0.0032597091048955917,-0.001472461735829711,0.0459747314453125,-0.06964111328125,-0.9964599609375,112.12959289550781,-29.482955932617188,-37.151641845703125,2023-09-09 22:11:39.3150,1694315499.3146849,-0.023401010781526566,0.01980719529092312,-0.019575253129005432,-0.030288701876997948,-0.4200439155101776,-0.9033966064453125,
0,2023-09-09 22:11:39.1360,02:25,10,1,2023-09-09 22:11:39.7370,1694315499.736516,-3.808320252574049e-05,-0.002115881536155939,-0.005682653281837702,0.0450439453125,-0.068328857421875,-0.9955902099609375,112.0599365234375,-29.543182373046875,-37.54608154296875,2023-09-09 22:11:39.4150,1694315499.414577,0.022086845710873604,-0.007990612648427486,0.0083529157564044,-0.023956291377544403,-0.413055419921875,-0.90283203125,
0,2023-09-09 22:11:39.1360,02:25,10,1,2023-09-09 22:11:39.8370,1694315499.83654,-0.0016429040115326643,-0.0031033814884722233,-0.0034932682756334543,0.0449981689453125,-0.071533203125,-0.991943359375,111.99861145019531,-29.412399291992188,-38.06687927246094,2023-09-09 22:11:39.5140,1694315499.514235,0.09602685272693634,-0.0056209322065114975,0.0004290798678994179,-0.0198974646627903,-0.4109954535961151,-0.9075621962547302,
0,2023-09-09 22:11:39.1360,02:25,10,1,2023-09-09 22:11:39.9380,1694315499.937674,-0.002805107505992055,-0.005049886181950569,-0.003665574826300144,0.048858642578125,-0.06903076171875,-0.99700927734375,111.94956970214844,-29.115997314453125,-38.05253601074219,2023-09-09 22:11:39.6140,1694315499.614194,0.03991890326142311,-0.006586994044482708,-0.004400329664349556,-0.024993902072310448,-0.4114684760570526,-0.9070128798484802,
0,2023-09-09 22:11:39.1360,02:25,10,1,2023-09-09 22:11:40.0370,1694315500.036797,-0.003878627670928836,-0.0035683694295585155,-0.0037502634804695845,0.0460662841796875,-0.0690460205078125,-0.9959564208984375,111.935302734375,-29.30389404296875,-38.17970275878906,2023-09-09 22:11:39.7140,1694315499.713904,0.01503379549831152,-0.00012936070561408997,-0.0019012191332876682,-0.03370665945112705,-0.4141387939453125,-0.9171295166015625,
0,2023-09-09 22:11:39.1360,02:25,10,1,2023-09-09 22:11:40.1360,1694315500.136135,-0.002691923175007105,-0.005311941262334585,-0.0034141724463552237,0.0434417724609375,-0.068084716796875,-0.99468994140625,112.13723754882812,-29.408432006835938,-37.93086242675781,2023-09-09 22:11:39.8140,1694315499.814299,-0.053341932594776154,0.0153939388692379,-0.006947709713131189,-0.02644348330795765,-0.4162140190601349,-0.9014434814453125,
0,2023-09-09 22:11:39.1360,02:25,10,1,2023-09-09 22:11:40.2400,1694315500.2397242,-2.6631610694494157e-07,-0.00370099488645792,-0.0011259844759479165,0.0453643798828125,-0.0689849853515625,-0.995147705078125,112.09428405761719,-29.19207763671875,-38.567352294921875,2023-09-09 22:11:39.9140,1694315499.913733,-0.0005411687307059765,-0.0031890664249658585,0.0034232386387884617,-0.019882196560502052,-0.4134979248046875,-0.9002228379249573,
0,2023-09-09 22:11:39.1360,02:25,10,1,2023-09-09 22:11:40.3400,1694315500.339888,0.0009859022684395313,-0.0039113848470151424,-0.003156911116093397,0.0459747314453125,-0.068450927734375,-0.994049072265625,111.96208190917969,-29.299560546875,-38.3253173828125,2023-09-09 22:11:40.0140,1694315500.013692,0.010222263634204865,-0.007670101709663868,-0.01628042384982109,-0.027603140100836754,-0.41815185546875,-0.910614013671875,
0,2023-09-09 22:11:39.1360,02:25,10,1,2023-09-09 22:11:40.4380,1694315500.438235,4.793690095539205e-06,-0.0029848709236830473,-0.005358812864869833,0.04583740234375,-0.068145751953125,-0.9965057373046875,111.78228759765625,-28.971038818359375,-38.47465515136719,2023-09-09 22:11:40.1140,1694315500.113528,0.07085451483726501,-0.021266205236315727,-0.03401005268096924,-0.019393907859921455,-0.4038695991039276,-0.903533935546875,
0,2023-09-09 22:11:39.1360,02:25,10,1,2023-09-09 22:11:40.5380,1694315500.5383868,-0.003430950455367565,-0.0046730488538742065,-0.0023339942563325167,0.04461669921875,-0.0688018798828125,-0.996490478515625,111.79545593261719,-29.040435791015625,-38.44532775878906,2023-09-09 22:11:40.2130,1694315500.2133121,-0.04079431667923927,-0.0023240717127919197,-0.04292454943060875,-0.030929557979106903,-0.406829833984375,-0.90234375,
0,2023-09-09 22:11:39.1360,02:25,10,1,2023-09-09 22:11:40.6390,1694315500.638741,-0.002621882129460573,-0.004853610880672932,-0.002523611532524228,0.047393798828125,-0.06805419921875,-0.9954986572265625,111.78683471679688,-28.805160522460938,-38.373809814453125,2023-09-09 22:11:40.3130,1694315500.3131309,-0.31477293372154236,-0.03372606635093689,-0.20789283514022827,-0.0691680833697319,-0.436370849609375,-0.8450164794921875,
0,2023-09-09 22:11:39.1360,02:25,10,1,2023-09-09 22:11:40.7400,1694315500.7398329,-0.0030487868934869766,-0.00455800024792552,-0.002612294629216194,0.045318603515625,-0.0677642822265625,-0.9925994873046875,111.63087463378906,-29.011642456054688,-38.60084533691406,2023-09-09 22:11:40.4130,1694315500.413048,-1.1360152959823608,-0.1196536272764206,-0.9040387868881226,-0.1377105675637722,-0.4594573676586151,-0.7785186171531677,
0,2023-09-09 22:11:39.1360,02:25,10,1,2023-09-09 22:11:40.8390,1694315500.838829,-0.0015166702214628458,-0.005625395104289055,-0.003575559938326478,0.0448150634765625,-0.068695068359375,-0.993927001953125,111.71163940429688,-28.930908203125,-38.52146911621094,2023-09-09 22:11:40.5130,1694315500.512916,-2.0362842082977295,-0.20674338936805725,-2.2436368465423584,-0.22616576496511698,-0.3689422309398651,-0.7516937255859375,
0,2023-09-09 22:11:39.1360,02:25,10,1,2023-09-09 22:11:40.9400,1694315500.9395099,-0.00013156015484128147,-0.0022543659433722496,-0.0033816818613559008,0.0449066162109375,-0.0697479248046875,-0.9954833984375,111.77632141113281,-28.98089599609375,-38.617462158203125,2023-09-09 22:11:40.6130,1694315500.612742,-2.2268612384796143,-0.14085492491722107,-3.069746971130371,-0.32664491422474384,-0.07489009574055672,-0.8862152099609375,
0,2023-09-09 22:11:39.1360,02:25,10,1,2023-09-09 22:11:41.0410,1694315501.040601,-0.0002657834847923368,-0.002088717184960842,-0.004056260455399752,0.04669189453125,-0.0712738037109375,-0.995819091796875,111.79295349121094,-28.856765747070312,-38.72593688964844,2023-09-09 22:11:40.7120,1694315500.712431,-2.239593029022217,0.5429074168205261,-3.3878602981567383,-0.5546875484287739,0.5348052978515625,-1.0336303114891052,
0,2023-09-09 22:11:39.1360,02:25,10,1,2023-09-09 22:11:41.1400,1694315501.13958,0.0008135957177728415,-0.0037531929556280375,-0.003924700431525707,0.051910400390625,-0.07147216796875,-1.0014495849609375,111.79914855957031,-28.990264892578125,-38.3924560546875,2023-09-09 22:11:40.8120,1694315500.812238,-4.160110950469971,0.9427849054336548,-2.8147943019866943,-0.3671570122241974,0.8392487466335297,-0.7308806777000427,
0,2023-09-09 22:11:39.1360,02:25,10,1,2023-09-09 22:11:41.2390,1694315501.2389898,0.0019196064677089453,-0.0034730283077806234,-0.0034466630313545465,0.04278564453125,-0.0748138427734375,-0.999755859375,111.842041015625,-28.81640625,-38.69207763671875,2023-09-09 22:11:40.9120,1694315500.912353,-2.9405577182769775,1.4662278890609741,-1.3663156032562256,0.0008239299058914185,1.4371185898780823,-0.7294921278953552,
0,2023-09-09 22:11:39.1360,02:25,10,1,2023-09-09 22:11:41.3390,1694315501.3393788,-0.00015180018090177327,-0.0052381716668605804,-0.0017528926255181432,0.0480194091796875,-0.0734710693359375,-1.0035247802734375,111.84339904785156,-28.93804931640625,-38.80128479003906,2023-09-09 22:11:41.0120,1694315501.012114,0.5186643600463867,0.49111321568489075,-0.4106617867946625,0.16851801425218582,0.7987518906593323,-0.4235076904296875,
0,2023-09-09 22:11:39.1360,02:25,10,1,2023-09-09 22:11:41.4400,1694315501.439544,-0.002216282533481717,-0.005495965480804443,-0.00552312983199954,0.046142578125,-0.0728607177734375,-1.0018768310546875,111.7791748046875,-28.960540771484375,-38.68898010253906,2023-09-09 22:11:41.1120,1694315501.1119761,-2.107496500015259,0.125074103474617,0.0199319738894701,0.2542418837547302,0.9933777451515198,-0.4542999267578125,
0,2023-09-09 22:11:39.1360,02:25,10,1,2023-09-09 22:11:41.5390,1694315501.53926,-0.0028754149097949266,-0.0033430662006139755,-0.00344586418941617,0.0459442138671875,-0.0746002197265625,-1.0003509521484375,111.90971374511719,-29.082656860351562,-38.48527526855469,2023-09-09 22:11:41.2120,1694315501.211701,1.885443925857544,-0.06807564944028854,-0.04198339208960533,-0.10182195901870728,1.1620026230812073,-0.5467681288719177,
0,2023-09-09 22:11:39.1360,02:25,10,1,2023-09-09 22:11:41.6390,1694315501.638867,-0.0021459751296788454,-0.0030365362763404846,-0.005022988189011812,0.0455322265625,-0.0738983154296875,-1.0002593994140625,111.88754272460938,-29.021896362304688,-38.50102233886719,2023-09-09 22:11:41.3120,1694315501.311562,1.2783145904541016,0.050298526883125305,0.8290750980377197,-0.21527107059955597,0.7400055527687073,-0.6533660292625427,
0,2023-09-09 22:11:39.1360,02:25,10,1,2023-09-09 22:11:41.7390,1694315501.738512,0.0005499427788890898,-0.004744155332446098,-0.0035894084721803665,0.0474395751953125,-0.0735015869140625,-1.0010528564453125,111.67869567871094,-29.058807373046875,-38.502105712890625,2023-09-09 22:11:41.4110,1694315501.411138,1.92366623878479,0.2537424564361572,0.8024871945381165,-0.10513310506939888,0.5685425400733948,-0.676116943359375,
0,2023-09-09 22:11:39.1360,02:25,10,1,2023-09-09 22:11:41.8400,1694315501.83973,-0.0017422399250790477,-0.005563343409448862,-0.0041529336012899876,0.0446624755859375,-0.0708465576171875,-0.9998779296875,111.887451171875,-29.205291748046875,-38.31053161621094,2023-09-09 22:11:41.5110,1694315501.511302,0.29090797901153564,-0.039443742483854294,0.636393129825592,0.04151911893859506,0.2640381157398224,-0.8328094482421875,
0,2023-09-09 22:11:39.1360,02:25,10,1,2023-09-09 22:11:41.9400,1694315501.940154,-0.000734766130335629,-0.005026450380682945,-0.003257578704506159,0.048126220703125,-0.0731964111328125,-1.0015106201171875,111.78903198242188,-29.354827880859375,-37.951080322265625,2023-09-09 22:11:41.6110,1694315501.6112351,-1.3857663869857788,0.0005180533044040203,0.3428106904029846,-6.106961518526077e-05,0.5529938340187073,-0.8556670546531677,
0,2023-09-09 22:11:39.1360,02:25,10,1,2023-09-09 22:11:42.0390,1694315502.039462,-0.004719654098153114,-0.0054967645555734634,-0.0010450243717059493,0.0517120361328125,-0.07135009765625,-1.0028533935546875,111.82183837890625,-29.24786376953125,-38.43121337890625,2023-09-09 22:11:41.7110,1694315501.7108421,-0.5375964045524597,0.1593678891658783,0.13284167647361755,0.02671808749437332,0.6543274521827698,-0.7727203369140625,
0,2023-09-09 22:11:39.1360,02:25,10,1,2023-09-09 22:11:42.1390,1694315502.138715,-0.0010671286145225167,-0.004450408276170492,-0.000404534162953496,0.044586181640625,-0.0715789794921875,-1.001495361328125,111.73506164550781,-29.030548095703125,-38.22331237792969,2023-09-09 22:11:41.8110,1694315501.810678,-0.21989981830120087,0.13718920946121216,0.1045350432395935,0.043319664895534515,0.65118408203125,-0.7497405409812927,
0,2023-09-09 22:11:39.1360,02:25,10,1,2023-09-09 22:11:42.2390,1694315502.238968,0.003094326937571168,0.0003408846096135676,-0.0019688750617206097,0.0402984619140625,-0.0797271728515625,-1.0028076171875,111.75900268554688,-28.763458251953125,-38.491729736328125,2023-09-09 22:11:41.9110,1694315501.9105492,0.025115657597780228,0.12454825639724731,0.11543596535921097,0.08734127134084702,0.688446044921875,-0.7381744384765625,
0,2023-09-09 22:11:39.1360,02:25,10,1,2023-09-09 22:11:42.3390,1694315502.339405,-0.0026913906913250685,0.001418932224623859,-0.0025539714843034744,0.04022216796875,-0.080169677734375,-1.0023193359375,111.68228149414062,-29.027969360351562,-38.628021240234375,2023-09-09 22:11:42.0110,1694315502.010797,0.1566343903541565,0.021479394286870956,-0.005443789064884186,0.10945124179124832,0.6565399169921875,-0.74114990234375,
0,2023-09-09 22:11:39.1360,02:25,10,1,2023-09-09 22:11:42.4380,1694315502.438412,-0.005544701125472784,-0.002229065867140889,-0.002141980454325676,0.0492401123046875,-0.07373046875,-1.002899169921875,111.91221618652344,-29.2862548828125,-38.40388488769531,2023-09-09 22:11:42.1100,1694315502.1102629,0.05099199339747429,0.02367357350885868,0.06073622778058052,0.08639521896839142,0.6412964463233948,-0.7541350722312927,
0,2023-09-09 22:11:39.1360,02:25,10,1,2023-09-09 22:11:42.5390,1694315502.538671,-0.0038511971943080425,-0.004135356284677982,-0.0034823494497686625,0.0449676513671875,-0.0733795166015625,-0.99957275390625,111.771728515625,-29.03106689453125,-38.06141662597656,2023-09-09 22:11:42.2100,1694315502.2100449,-0.06096683070063591,0.042855653911828995,-0.011679613962769508,0.10375973582267761,0.6395111680030823,-0.7474212646484375,
0,2023-09-09 22:11:39.1360,02:25,10,1,2023-09-09 22:11:42.6400,1694315502.639861,0.0005392901366576552,-0.006382531952112913,-0.0031467911321669817,0.04736328125,-0.0747833251953125,-1.0025787353515625,111.81790161132812,-29.058578491210938,-37.96730041503906,2023-09-09 22:11:42.3100,1694315502.309886,-0.01154541689902544,-0.04684187471866608,-0.040545251220464706,0.09736628830432892,0.64581298828125,-0.7475737929344177,
0,2023-09-09 22:11:39.1360,02:25,10,1,2023-09-09 22:11:42.7390,1694315502.739327,-0.0041396175511181355,-0.007096258923411369,-0.004547613672912121,0.0499267578125,-0.069854736328125,-1.005584716796875,111.85658264160156,-29.062454223632812,-37.987335205078125,2023-09-09 22:11:42.4100,1694315502.4097018,-0.04912028834223747,-0.025562550872564316,-0.02592499740421772,0.08480832725763321,0.657364010810852,-0.74609375,
0,2023-09-09 22:11:39.1360,02:25,10,1,2023-09-09 22:11:42.8400,1694315502.8395329,-0.0018053569365292788,-0.005530320107936859,-0.0033720945939421654,0.041656494140625,-0.0736541748046875,-1.0014495849609375,111.95877075195312,-29.144668579101562,-38.0394287109375,2023-09-09 22:11:42.5100,1694315502.5095491,-0.013930144719779491,-0.04998147115111351,-0.03932439163327217,0.07131955772638321,0.6487579941749573,-0.7504119873046875,
0,2023-09-09 22:11:39.1360,02:25,10,1,2023-09-09 22:11:42.9400,1694315502.939542,-0.003941478207707405,-0.0031731564085930586,-0.004801679402589798,0.0428466796875,-0.0744476318359375,-0.9997406005859375,111.91273498535156,-29.101837158203125,-38.027191162109375,2023-09-09 22:11:42.6090,1694315502.609468,-0.04970531910657883,-0.01844485104084015,-0.019218789413571358,0.06626888364553452,0.66094970703125,-0.7443695068359375,
0,2023-09-09 22:11:39.1360,02:25,10,1,2023-09-09 22:11:43.0390,1694315503.039439,-0.0018929748330265284,-0.002956375014036894,-0.004786499310284853,0.0502471923828125,-0.0715179443359375,-1.0013885498046875,111.92878723144531,-28.915802001953125,-38.050567626953125,2023-09-09 22:11:42.7090,1694315502.709299,-0.006955125369131565,-0.02461739256978035,-0.0221183393150568,0.06951900571584702,0.6649017930030823,-0.7444915771484375,
0,2023-09-09 22:11:39.1360,02:25,10,1,2023-09-09 22:11:43.1380,1694315503.137838,-0.0005036037764512002,-0.008310927078127861,-0.0015877765836194158,0.049224853515625,-0.071746826171875,-1.0011749267578125,111.82164001464844,-28.834915161132812,-38.101837158203125,2023-09-09 22:11:42.8090,1694315502.8090758,-0.025699585676193237,-0.0029665594920516014,-0.004438779316842556,0.06732173264026642,0.6599579453468323,-0.7435302138328552,
0,2023-09-09 22:11:39.1360,02:25,10,1,2023-09-09 22:11:43.2380,1694315503.238163,-0.006073072552680969,-0.0026756778825074434,-0.000669252360239625,0.0462799072265625,-0.0679779052734375,-0.999755859375,111.71292114257812,-29.169876098632812,-38.431549072265625,2023-09-09 22:11:42.9090,1694315502.90885,-0.009377404116094112,-0.008150801993906498,-0.009801154024899006,0.06384275108575821,0.6637268662452698,-0.743988037109375,
0,2023-09-09 22:11:39.1360,02:25,10,1,2023-09-09 22:11:43.3380,1694315503.33758,0.0009126652730628848,-0.005850964691489935,-0.0038714371621608734,0.04742431640625,-0.06976318359375,-0.9986724853515625,111.70750427246094,-28.698516845703125,-38.36293029785156,2023-09-09 22:11:43.0090,1694315503.008654,-0.003867723513394594,0.007421765476465225,0.008640104904770851,0.06439205259084702,0.6592712998390198,-0.7423705458641052,
0,2023-09-09 22:11:39.1360,02:25,10,1,2023-09-09 22:11:43.4380,1694315503.437821,0.0003478088474366814,-0.006442719139158726,-0.00037257623625919223,0.042388916015625,-0.0713958740234375,-0.994598388671875,111.78570556640625,-29.093963623046875,-38.33204650878906,2023-09-09 22:11:43.1090,1694315503.108578,0.02134988084435463,0.00014308001846075058,-0.0022625436540693045,0.06991572678089142,0.6682892441749573,-0.7401122450828552,
0,2023-09-09 22:11:39.1360,02:25,10,1,2023-09-09 22:11:43.5380,1694315503.5379472,-0.0017150756902992725,-0.00030786142451688647,-0.00387330143712461,0.039520263671875,-0.0724029541015625,-0.9903717041015625,111.79766845703125,-29.186904907226562,-38.078338623046875,2023-09-09 22:11:43.2080,1694315503.2084742,-0.009796518832445145,-0.000117509625852108,-0.005177007056772709,0.06780999898910522,0.6593781113624573,-0.7430114150047302,
0,2023-09-09 22:11:39.1360,02:25,10,1,2023-09-09 22:11:43.6370,1694315503.637278,-0.008988700807094574,-0.0007866977830417454,-0.003293264890089631,0.0460662841796875,-0.0688934326171875,-0.9972686767578125,111.77973937988281,-28.7869873046875,-38.33396911621094,2023-09-09 22:11:43.3080,1694315503.30828,-0.008489307016134262,-0.0012525497004389763,-0.0007022974896244705,0.06988523155450821,0.6611785888671875,-0.7413329482078552,
0,2023-09-09 22:11:39.1360,02:25,10,1,2023-09-09 22:11:43.7390,1694315503.7392092,0.001457548001781106,-0.005351888481527567,-0.00625975988805294,0.0491180419921875,-0.0687255859375,-0.997314453125,111.7857666015625,-29.133834838867188,-38.47654724121094,2023-09-09 22:11:43.4080,1694315503.408298,-0.003907870501279831,-0.02030906453728676,-0.007626250386238098,0.06956478953361511,0.6638489365577698,-0.741226077079773,
0,2023-09-09 22:11:39.1360,02:25,10,1,2023-09-09 22:11:43.8380,1694315503.8384938,-0.0031675638165324926,-0.001740109408274293,-0.003540672594681382,0.04400634765625,-0.06927490234375,-0.9969940185546875,111.72933959960938,-29.231643676757812,-38.43544006347656,2023-09-09 22:11:43.5080,1694315503.507791,-0.00015381211414933205,-0.013264071196317673,-0.0010026022791862488,0.06436153501272202,0.6601410508155823,-0.7440032362937927,
0,2023-09-09 22:11:39.1360,02:25,10,1,2023-09-09 22:11:43.9380,1694315503.9375339,0.007218231912702322,-0.005627791862934828,-0.003719637170433998,0.0469207763671875,-0.0699615478515625,-0.99664306640625,111.72157287597656,-28.95550537109375,-38.38230895996094,2023-09-09 22:11:43.6080,1694315503.607846,0.004184011369943619,0.017265740782022476,0.014666073024272919,0.06285090744495392,0.6698761582374573,-0.74114990234375,
0,2023-09-09 22:11:39.1360,02:25,10,1,2023-09-09 22:11:44.0370,1694315504.036518,0.0009286442655138671,-0.002832271857187152,-0.0025161546654999256,0.046234130859375,-0.07183837890625,-0.995147705078125,111.74847412109375,-28.916885375976562,-38.20501708984375,2023-09-09 22:11:43.7080,1694315503.7076359,0.007120013236999512,0.006779544521123171,0.0025966933462768793,0.06527706235647202,0.6653290390968323,-0.7404937744140625,
0,2023-09-09 22:11:39.1360,02:25,10,1,2023-09-09 22:11:44.1390,1694315504.1391659,-0.0033894050866365433,-0.0046967510133981705,-0.0051721250638365746,0.048187255859375,-0.070220947265625,-0.9955902099609375,111.74674987792969,-28.729400634765625,-38.32606506347656,2023-09-09 22:11:43.8080,1694315503.807574,-0.005961567163467407,0.0036447374150156975,0.006272987462580204,0.06492611765861511,0.6616364121437073,-0.7417907118797302,
0,2023-09-09 22:11:39.1360,02:25,10,1,2023-09-09 22:11:44.2390,1694315504.238841,0.0025987126864492893,-0.002037051832303405,-0.0029590383637696505,0.04913330078125,-0.0707855224609375,-0.9945526123046875,111.67286682128906,-28.861465454101562,-38.22740173339844,2023-09-09 22:11:43.9070,1694315503.907306,0.01247915904968977,0.0023340629413723946,0.0023192916996777058,0.06732174754142761,0.6629029512405396,-0.7438201904296875,
0,2023-09-09 22:11:39.1360,02:25,10,1,2023-09-09 22:11:44.3390,1694315504.339061,0.0020445086993277073,-0.001924666459672153,-0.0075543224811553955,0.049163818359375,-0.0683441162109375,-0.994293212890625,111.83993530273438,-29.096786499023438,-38.4600830078125,2023-09-09 22:11:44.0070,1694315504.0071192,-0.0006383743602782488,0.01413213275372982,0.01212205458432436,0.06755062192678452,0.6633911728858948,-0.7435302734375,
0,2023-09-09 22:11:39.1360,02:25,10,1,2023-09-09 22:11:44.4390,1694315504.439107,0.0015949672088027,-0.0036780918017029762,-0.00624191714450717,0.051513671875,-0.0617828369140625,-0.9993133544921875,111.96357727050781,-28.994644165039062,-38.288116455078125,2023-09-09 22:11:44.1070,1694315504.1071692,0.021456141024827957,-0.003837279975414276,-0.00044786575017496943,0.0718078464269638,0.6637421250343323,-0.7405242919921875,
0,2023-09-09 22:11:39.1360,02:25,10,1,2023-09-09 22:11:44.5390,1694315504.539115,-0.0032855418976396322,-0.0017086841398850083,-0.0021310613956302404,0.0458984375,-0.068145751953125,-0.992645263671875,111.75604248046875,-29.333099365234375,-38.524383544921875,2023-09-09 22:11:44.2070,1694315504.2067819,-0.01941738836467266,0.011303056962788105,0.014305447228252888,0.06648248434066772,0.6587372422218323,-0.7447661757469177,
0,2023-09-09 22:11:39.1360,02:25,10,1,2023-09-09 22:11:44.6380,1694315504.6383948,-0.005449360236525536,-0.0019925772212445736,-0.004436559975147247,0.044219970703125,-0.06622314453125,-0.993743896484375,111.92488098144531,-29.042953491210938,-38.400115966796875,2023-09-09 22:11:44.3070,1694315504.306809,0.0019899660255759954,0.006315089296549559,0.0056320312432944775,0.07182309776544571,0.6653748154640198,-0.7416076064109802,
0,2023-09-09 22:11:39.1360,02:25,10,1,2023-09-09 22:11:44.7380,1694315504.737535,-0.00166607357095927,-0.0043902210891246796,-0.0030298782512545586,0.044219970703125,-0.06622314453125,-0.993743896484375,111.92176818847656,-29.215927124023438,-38.18080139160156,2023-09-09 22:11:44.4070,1694315504.40664,0.0116972541436553,-0.000172504223883152,0.0037355609238147736,0.07211301475763321,0.663375973701477,-0.7418059706687927,
0,2023-09-09 22:11:39.1360,02:25,10,1,2023-09-09 22:11:44.8380,1694315504.83806,0.0004114583716727793,-0.003689543344080448,-0.0037923413328826427,0.048828125,-0.0658111572265625,-0.9933319091796875,111.99661254882812,-29.440017700195312,-38.57603454589844,2023-09-09 22:11:44.5070,1694315504.506515,0.01622103340923786,2.5634653866291046e-05,0.0011379800271242857,0.07225033640861511,0.6661834716796875,-0.740753173828125,
0,2023-09-09 22:11:39.1360,02:25,10,1,2023-09-09 22:11:44.9390,1694315504.939225,0.0015387744642794132,-0.004187021870166063,-0.0049164616502821445,0.0449676513671875,-0.0634918212890625,-0.994476318359375,111.75401306152344,-29.200210571289062,-38.13055419921875,2023-09-09 22:11:44.6060,1694315504.6062179,-0.0023744890931993723,-0.0026921210810542107,-0.0007065252284519374,0.07078550010919571,0.6582184433937073,-0.7458953261375427,
0,2023-09-09 22:11:39.1360,02:25,10,1,2023-09-09 22:11:45.0390,1694315505.039499,-0.008048072457313538,-0.00446931691840291,-0.004022971261292696,0.0449676513671875,-0.0634918212890625,-0.994476318359375,111.72567749023438,-28.896011352539062,-38.409637451171875,2023-09-09 22:11:44.7060,1694315504.706032,0.023459572345018387,0.0019078240729868412,0.00253291055560112,0.07069392502307892,0.6630097031593323,-0.7456359267234802,
0,2023-09-09 22:11:39.1360,02:25,10,1,2023-09-09 22:11:45.1390,1694315505.138566,-0.007510113995522261,-0.0041033984161913395,-0.0022037657909095287,0.0450439453125,-0.06732177734375,-0.995697021484375,111.76249694824219,-29.18365478515625,-38.086456298828125,2023-09-09 22:11:44.8060,1694315504.805929,0.03363650664687157,-0.004616254940629005,-0.008935959078371525,0.07208248227834702,0.6651611328125,-0.7424315214157104,
0,2023-09-09 22:11:39.1360,02:25,10,1,2023-09-09 22:11:45.2390,1694315505.2388391,-0.0026730147656053305,-0.0038011297583580017,-0.004221376497298479,0.0472564697265625,-0.0660247802734375,-0.99908447265625,111.67572021484375,-28.987442016601562,-38.39201354980469,2023-09-09 22:11:44.9060,1694315504.905582,-0.020527994260191917,0.008957210928201675,0.009896351024508476,0.06640622764825821,0.6534577012062073,-0.7488707900047302,
0,2023-09-09 22:11:39.1360,02:25,10,1,2023-09-09 22:11:45.3390,1694315505.338557,-0.005720470100641251,-0.005105279851704836,-0.0033846113365143538,0.0465545654296875,-0.0660400390625,-0.993896484375,111.98468017578125,-29.2386474609375,-38.49859619140625,2023-09-09 22:11:45.0060,1694315505.0055099,0.005508268252015114,0.0016585523262619972,0.003923479933291674,0.07408138364553452,0.6622772216796875,-0.7435912489891052,
0,2023-09-09 22:11:39.1360,02:25,10,1,2023-09-09 22:11:45.4400,1694315505.439526,0.0021283982787281275,-0.004254133440554142,-0.003221625927835703,0.0533905029296875,-0.064361572265625,-0.9964752197265625,111.67259216308594,-28.957046508789062,-38.47984313964844,2023-09-09 22:11:45.1060,1694315505.105535,0.002939848694950342,0.0026099667884409428,0.0014090898912400007,0.0725250095129013,0.6617127060890198,-0.7426452040672302,
0,2023-09-09 22:11:39.1360,02:25,10,1,2023-09-09 22:11:45.5380,1694315505.5380669,-0.0015222628135234118,-0.001508414396084845,-0.0019680759869515896,0.0467681884765625,-0.0650634765625,-0.9934234619140625,111.74781799316406,-28.982223510742188,-38.410552978515625,2023-09-09 22:11:45.2050,1694315505.2052279,-0.017393186688423157,0.002263089641928673,0.001119770691730082,0.07449337095022202,0.660476803779602,-0.7458190321922302,
0,2023-09-09 22:11:39.1360,02:25,10,1,2023-09-09 22:11:45.6390,1694315505.6391869,-0.002359294332563877,-0.0007121292874217033,-0.0027260116767138243,0.0454559326171875,-0.06640625,-0.9911651611328125,111.80799865722656,-28.946685791015625,-38.46807861328125,2023-09-09 22:11:45.3050,1694315505.305001,-0.022798137739300728,0.0011596092954277992,0.003099331632256508,0.07218930870294571,0.6569215059280396,-0.74407958984375,
0,2023-09-09 22:11:39.1360,02:25,10,1,2023-09-09 22:11:45.7380,1694315505.738354,0.0013648699969053268,-0.0044019389897584915,-0.004273840691894293,0.0497894287109375,-0.064056396484375,-0.9898834228515625,111.81362915039062,-29.282241821289062,-38.24565124511719,2023-09-09 22:11:45.4050,1694315505.404963,0.003526410087943077,-0.0002417461946606636,-0.0003962003975175321,0.07449336349964142,0.66009521484375,-0.7421264052391052,
0,2023-09-09 22:11:39.1360,02:25,10,1,2023-09-09 22:11:45.8390,1694315505.83922,-0.004686098080128431,-0.003578489413484931,-0.002151301596313715,0.0496368408203125,-0.066375732421875,-0.9955596923828125,111.93695068359375,-28.933380126953125,-38.229461669921875,2023-09-09 22:11:45.5050,1694315505.504751,-0.024708157405257225,0.004164186771959066,-0.002354156458750367,0.0747833102941513,0.6616669297218323,-0.7427062392234802,
0,2023-09-09 22:11:39.1360,02:25,10,1,2023-09-09 22:11:45.9390,1694315505.939235,-0.0017193368403241038,-0.0007595335482619703,-0.005646700505167246,0.04974365234375,-0.0699920654296875,-0.996063232421875,111.86784362792969,-28.888427734375,-38.321380615234375,2023-09-09 22:11:45.6050,1694315505.6045408,0.01003297884017229,-0.0037726983428001404,0.0005182292079553008,0.07099910080432892,0.6633759140968323,-0.7418670654296875,
0,2023-09-09 22:11:39.1360,02:25,10,1,2023-09-09 22:11:46.0390,1694315506.039095,-0.005814746022224426,-0.005863481666892767,-0.0018216022290289402,0.0489044189453125,-0.066131591796875,-0.9975738525390625,111.98867797851562,-29.261199951171875,-38.43171691894531,2023-09-09 22:11:45.7050,1694315505.704543,-0.010829227045178413,0.008057196624577045,0.0038500099908560514,0.07537838816642761,0.6712647080421448,-0.740020751953125,
0,2023-09-09 22:11:39.1360,02:25,10,1,2023-09-09 22:11:46.1390,1694315506.139252,-0.0036362800747156143,-0.0037025928031653166,-0.005122057627886534,0.045013427734375,-0.0695953369140625,-1.000244140625,111.97482299804688,-29.119140625,-38.195465087890625,2023-09-09 22:11:45.8040,1694315505.804236,-0.03832409903407097,0.006544787436723709,-0.0021412367932498455,0.07075496017932892,0.6584320664405823,-0.740753173828125,
0,2023-09-09 22:11:39.1360,02:25,10,1,2023-09-09 22:11:46.2390,1694315506.239296,-0.002042910782620311,-0.004620584659278393,-0.0033878071699291468,0.0439453125,-0.0723724365234375,-0.996063232421875,111.92967224121094,-29.174789428710938,-38.20680236816406,2023-09-09 22:11:45.9040,1694315505.903924,-0.01975221559405327,0.007191269658505917,0.007123201619833708,0.07554622739553452,0.6633453965187073,-0.7384796142578125,
0,2023-09-09 22:11:39.1360,02:25,10,1,2023-09-09 22:11:46.3390,1694315506.338821,-0.012025769799947739,-0.00044314999831840396,-0.010673949494957924,0.04364013671875,-0.07537841796875,-0.999114990234375,111.97036743164062,-28.871719360351562,-38.58680725097656,2023-09-09 22:11:46.0040,1694315506.004099,0.009436497464776039,-0.010087452828884125,0.0007653372595086694,0.07617183774709702,0.6701355576515198,-0.7378539443016052,
0,2023-09-09 22:11:39.1360,02:25,10,1,2023-09-09 22:11:46.4390,1694315506.43945,0.00794447585940361,0.004999019671231508,-0.001475391210988164,0.040252685546875,-0.0670318603515625,-0.9796905517578125,111.92666625976562,-28.88836669921875,-38.264495849609375,2023-09-09 22:11:46.1040,1694315506.103802,-0.00434090057387948,-0.0016275225207209587,-0.0012670208234339952,0.07722470909357071,0.667953372001648,-0.7396851181983948,
0,2023-09-09 22:11:39.1360,02:25,10,1,2023-09-09 22:11:46.5390,1694315506.539163,-0.013205017894506454,-0.01606099121272564,-0.01643010601401329,0.0312042236328125,-0.080230712890625,-1.00811767578125,112.0416259765625,-28.947845458984375,-38.40730285644531,2023-09-09 22:11:46.2040,1694315506.203611,0.013987240381538868,-0.0020850524306297302,-0.00014889257727190852,0.07447811961174011,0.668319821357727,-0.73931884765625,
0,2023-09-09 22:11:39.1360,02:25,10,1,2023-09-09 22:11:46.6390,1694315506.639236,-0.0036392095498740673,-0.013322463259100914,-0.004718322306871414,0.05560302734375,-0.0774993896484375,-1.0103759765625,111.87603759765625,-28.959625244140625,-38.329193115234375,2023-09-09 22:11:46.3030,1694315506.3034658,-0.008616538718342781,-0.0047906916588544846,-0.002514878287911415,0.07592768967151642,0.6599884629249573,-0.737518310546875,
0,2023-09-09 22:11:39.1360,02:25,10,1,2023-09-09 22:11:46.7390,1694315506.73904,-0.014957644045352936,-0.009327988140285015,-0.0011470235185697675,0.054962158203125,-0.0726165771484375,-1.02392578125,111.81150817871094,-28.975601196289062,-38.222564697265625,2023-09-09 22:11:46.4030,1694315506.403342,0.01588054746389389,-0.00756304245442152,-0.0010283016599714756,0.07592770457267761,0.6645203232765198,-0.7394866347312927,
0,2023-09-09 22:11:39.1360,02:25,10,1,2023-09-09 22:11:46.8390,1694315506.839171,-0.004373176954686642,-0.005726595409214497,0.0070888022892177105,0.0392608642578125,-0.0697479248046875,-1.00799560546875,111.74955749511719,-28.943511962890625,-38.370452880859375,2023-09-09 22:11:46.5030,1694315506.5030909,-0.016165070235729218,0.006172077730298042,0.0016087936237454414,0.07559198886156082,0.6678314208984375,-0.737136721611023,
0,2023-09-09 22:11:39.1360,02:25,10,1,2023-09-09 22:11:46.9380,1694315506.93821,-0.01757499948143959,-0.004517520312219858,0.002432531211525202,0.0289154052734375,-0.08319091796875,-1.005828857421875,111.79862976074219,-28.920318603515625,-38.39933776855469,2023-09-09 22:11:46.6030,1694315506.603081,0.009051604196429253,0.004540358670055866,0.0023946925066411495,0.07664486765861511,0.6669159531593323,-0.7390289306640625,
0,2023-09-09 22:11:39.1360,02:25,10,1,2023-09-09 22:11:47.0390,1694315507.039408,0.0007126618875190616,-0.008024370297789574,0.008192416280508041,0.025390625,-0.0779266357421875,-0.9943389892578125,111.6898193359375,-28.893707275390625,-38.32572937011719,2023-09-09 22:11:46.7030,1694315506.702876,-0.01614103466272354,0.005908024962991476,0.007321107666939497,0.07543942332267761,0.6638641953468323,-0.7386626601219177,
0,2023-09-09 22:11:39.1360,02:25,10,1,2023-09-09 22:11:47.1380,1694315507.1383982,-0.000517718493938446,-0.013174124993383884,0.002145442645996809,0.0454864501953125,-0.0719146728515625,-0.9992828369140625,111.6905517578125,-28.741317749023438,-38.321807861328125,2023-09-09 22:11:46.8030,1694315506.80271,-0.009304233826696873,0.0001911502331495285,-0.004600898828357458,0.07830806076526642,0.6657715439796448,-0.7371367812156677,
0,2023-09-09 22:11:39.1360,02:25,10,1,2023-09-09 22:11:47.2390,1694315507.23909,0.011861719191074371,0.004013650119304657,-0.0023126890882849693,0.0545196533203125,-0.07177734375,-1.00506591796875,111.69688415527344,-28.807662963867188,-38.35809326171875,2023-09-09 22:11:46.9030,1694315506.902524,0.0038489855360239744,-0.001828591339290142,-0.0008413810865022242,0.07815548777580261,0.6640930771827698,-0.737823486328125,
0,2023-09-09 22:11:39.1360,02:25,10,1,2023-09-09 22:11:47.3400,1694315507.339674,0.007968178018927574,0.00023329291434492916,0.0012152004055678844,0.0509033203125,-0.0778656005859375,-0.995147705078125,111.85285949707031,-29.10357666015625,-38.613983154296875,2023-09-09 22:11:47.0020,1694315507.002383,0.006316404324024916,-0.001730053685605526,-5.228642839938402e-05,0.07695004343986511,0.6681213974952698,-0.7359313368797302,
0,2023-09-09 22:11:39.1360,02:25,10,1,2023-09-09 22:11:47.4380,1694315507.438246,0.0018069547368213534,-0.008236890658736229,-0.0014330470003187656,0.0554351806640625,-0.0719146728515625,-0.9962615966796875,111.87245178222656,-28.729827880859375,-38.46281433105469,2023-09-09 22:11:47.1020,1694315507.1022592,0.008000453934073448,0.0025624288246035576,0.0035517029464244843,0.07577510178089142,0.6716766953468323,-0.737274169921875,
0,2023-09-09 22:11:39.1360,02:25,10,1,2023-09-09 22:11:47.5380,1694315507.538156,-0.00344506511464715,-0.00509862182661891,-0.005559614859521389,0.048736572265625,-0.0671539306640625,-0.9923858642578125,111.93838500976562,-28.961807250976562,-38.300079345703125,2023-09-09 22:11:47.2020,1694315507.2020931,0.002690244000405073,-0.0005827639251947403,-0.0034941560588777065,0.07908627390861511,0.6738587617874146,-0.7369231581687927,
0,2023-09-09 22:11:39.1360,02:25,10,1,2023-09-09 22:11:47.6390,1694315507.6390681,-0.001817873795516789,-0.011994345113635063,-0.0019118833588436246,0.0421142578125,-0.06512451171875,-0.990631103515625,111.70921325683594,-28.90740966796875,-38.24322509765625,2023-09-09 22:11:47.3020,1694315507.301831,-0.031249213963747025,0.005496167577803135,-0.001335331005975604,0.07498166710138321,0.664947509765625,-0.7376555800437927,
0,2023-09-09 22:11:39.1360,02:25,10,1,2023-09-09 22:11:47.7380,1694315507.738143,-0.005877596326172352,-0.006977482233196497,-0.0022620889358222485,0.047271728515625,-0.065216064453125,-0.9960479736328125,111.70921325683594,-28.90740966796875,-38.24322509765625,2023-09-09 22:11:47.4020,1694315507.401701,-0.0070075904950499535,-0.003391733393073082,-0.0026523638516664505,0.0779418796300888,0.6709290146827698,-0.736053466796875,
0,2023-09-09 22:11:39.1360,02:25,10,1,2023-09-09 22:11:47.8380,1694315507.838338,-0.00047111319145187736,-0.005953230429440737,0.0006056028068996966,0.0466766357421875,-0.065032958984375,-0.992767333984375,111.792236328125,-28.613693237304688,-38.36572265625,2023-09-09 22:11:47.5010,1694315507.501488,0.0020321770571172237,0.0013059498742222786,0.004051511641591787,0.07475277781486511,0.6694794297218323,-0.7368011474609375,
0,2023-09-09 22:11:39.1360,02:25,10,1,2023-09-09 22:11:47.9390,1694315507.939022,0.0014287859667092562,-0.005294364411383867,-0.001826395862735808,0.0429840087890625,-0.06524658203125,-0.99786376953125,111.60804748535156,-28.763397216796875,-38.1903076171875,2023-09-09 22:11:47.6010,1694315507.601486,0.0050302972085773945,-0.0008012764155864716,-0.001995428465306759,0.07905574887990952,0.6751710176467896,-0.7331084609031677,
0,2023-09-09 22:11:39.1360,02:25,10,1,2023-09-09 22:11:48.0380,1694315508.037942,0.0018098842119798064,-0.0014586133183911443,-0.0044144559651613235,0.047271728515625,-0.070343017578125,-0.9956817626953125,111.83685302734375,-28.797653198242188,-38.40589904785156,2023-09-09 22:11:47.7010,1694315507.7012029,0.0016619975212961435,-0.006670750677585602,-0.0021002572029829025,0.07759091258049011,0.6689301133155823,-0.7363891005516052,
0,2023-09-09 22:11:39.1360,02:25,10,1,2023-09-09 22:11:48.1380,1694315508.138098,-0.0006348976166918874,-0.00896499864757061,-0.002570216776803136,0.0443572998046875,-0.0741424560546875,-0.9954376220703125,111.82080078125,-29.043258666992188,-38.23442077636719,2023-09-09 22:11:47.8010,1694315507.801025,-0.0013117545749992132,0.00011245440691709518,0.0003702573594637215,0.07362363487482071,0.6695862412452698,-0.7347869277000427,
0,2023-09-09 22:11:39.1360,02:25,10,1,2023-09-09 22:11:48.2380,1694315508.2375531,0.0010135991033166647,-0.007157777901738882,-0.0025297366082668304,0.05682373046875,-0.0705718994140625,-1.0017852783203125,111.68756103515625,-29.184173583984375,-38.13002014160156,2023-09-09 22:11:47.9010,1694315507.900896,0.018373733386397362,-0.00768035463988781,-0.0001498247147537768,0.0762634128332138,0.6699524521827698,-0.734466552734375,
0,2023-09-09 22:11:39.1360,02:25,10,1,2023-09-09 22:11:48.3390,1694315508.339098,-0.0018644790397956967,-0.00780545873567462,-0.0019915117882192135,0.050201416015625,-0.07000732421875,-1.0075531005859375,111.72732543945312,-29.003036499023438,-38.20075988769531,2023-09-09 22:11:48.0010,1694315508.000735,-0.01309770718216896,-0.005619200877845287,-0.005917399190366268,0.07833860069513321,0.6651459336280823,-0.7369384765625,
0,2023-09-09 22:11:39.1360,02:25,10,1,2023-09-09 22:11:48.4390,1694315508.439486,0.003968908917158842,-0.005399026442319155,-0.00017124126316048205,0.050445556640625,-0.0681304931640625,-1.00225830078125,111.74755859375,-29.033859252929688,-38.403472900390625,2023-09-09 22:11:48.1010,1694315508.1005921,0.008579558692872524,-0.008874783292412758,-0.0011531042400747538,0.07559201121330261,0.6663666367530823,-0.7370910048484802,
0,2023-09-09 22:11:39.1360,02:25,10,1,2023-09-09 22:11:48.5390,1694315508.539186,-0.0017947042360901833,-0.010849185287952423,-0.0017044231062754989,0.0443878173828125,-0.072296142578125,-0.9971466064453125,111.71315002441406,-28.907470703125,-38.41157531738281,2023-09-09 22:11:48.2010,1694315508.200558,-0.005777942948043346,0.004028765484690666,0.006159603130072355,0.07545467466115952,0.6744232773780823,-0.736968994140625,
0,2023-09-09 22:11:39.1360,02:25,10,1,2023-09-09 22:11:48.6380,1694315508.6383948,0.0026312030386179686,-0.0016623451374471188,-0.0026820695493370295,0.04827880859375,-0.075103759765625,-0.995635986328125,111.64659118652344,-28.852142333984375,-38.46171569824219,2023-09-09 22:11:48.3000,1694315508.3002849,0.004288207273930311,0.002574280370026827,-0.0026318575255572796,0.07485957443714142,0.6722565293312073,-0.735153079032898,
0,2023-09-09 22:11:39.1360,02:25,10,1,2023-09-09 22:11:48.7380,1694315508.737739,-0.00023995080846361816,-0.0016373114194720984,0.00024580975878052413,0.04931640625,-0.0745697021484375,-0.9976043701171875,111.78877258300781,-28.786834716796875,-38.296539306640625,2023-09-09 22:11:48.4000,1694315508.400147,-0.01911931484937668,0.003299325704574585,-0.0005901783588342369,0.07757565379142761,0.6671295762062073,-0.73333740234375,
0,2023-09-09 22:11:39.1360,02:25,10,1,2023-09-09 22:11:48.8390,1694315508.839055,-0.00037230990710668266,-0.004643221385776997,-0.0005733785801567137,0.0433502197265625,-0.0772705078125,-1.0003662109375,111.69833374023438,-28.67108154296875,-38.24932861328125,2023-09-09 22:11:48.5000,1694315508.499793,0.0134995486587286,-0.0029568392783403397,-0.003222147235646844,0.07453913986682892,0.6692962646484375,-0.7355346083641052,
0,2023-09-09 22:11:39.1360,02:25,10,1,2023-09-09 22:11:48.9390,1694315508.939126,-0.002852778183296323,-0.0047087352722883224,0.0009763148264028132,0.044189453125,-0.07550048828125,-1.002349853515625,111.72544860839844,-28.8240966796875,-38.23390197753906,2023-09-09 22:11:48.6000,1694315508.599932,-0.0036756431218236685,0.0022068973630666733,-0.0012663549277931452,0.07658383250236511,0.6682587265968323,-0.7362975478172302,
0,2023-09-09 22:11:39.1360,02:25,10,1,2023-09-09 22:11:49.0390,1694315509.038834,-0.008949019946157932,-0.0033273533917963505,-0.0022021678742021322,0.0466156005859375,-0.0732574462890625,-1.0028533935546875,111.69912719726562,-28.798385620117188,-38.22784423828125,2023-09-09 22:11:48.7000,1694315508.699676,0.011900386773049831,-0.002832069993019104,-0.00267889560200274,0.07489010691642761,0.6690980195999146,-0.7364044189453125,
0,2023-09-09 22:11:39.1360,02:25,10,1,2023-09-09 22:11:49.1370,1694315509.136921,-0.004400873556733131,-0.004911934491246939,-0.001115598133765161,0.0432586669921875,-0.0705108642578125,-1.000701904296875,111.620849609375,-28.999908447265625,-38.31768798828125,2023-09-09 22:11:48.7990,1694315508.7994828,0.007960973307490349,-0.00015040021389722824,-0.00014579674461856484,0.07258603721857071,0.673294186592102,-0.73480224609375,
0,2023-09-09 22:11:39.1360,02:25,10,1,2023-09-09 22:11:49.2380,1694315509.2376971,0.001416269107721746,-0.003462908323854208,-0.0016381103778257966,0.047210693359375,-0.07073974609375,-1.0024261474609375,111.85551452636719,-28.905166625976562,-38.059967041015625,2023-09-09 22:11:48.8990,1694315508.89937,-0.01157524436712265,0.0024167541414499283,-0.0036507498007267714,0.07485958933830261,0.6731567978858948,-0.7376555800437927,
0,2023-09-09 22:11:39.1360,02:25,10,1,2023-09-09 22:11:49.3390,1694315509.339021,-0.0020237360149621964,-0.004862132947891951,-0.002424541860818863,0.04241943359375,-0.073638916015625,-0.99517822265625,111.74853515625,-28.926300048828125,-38.22016906738281,2023-09-09 22:11:48.9990,1694315508.9992452,-0.009154165163636208,-0.0005808994174003601,0.008627754636108875,0.07510373741388321,0.6635132431983948,-0.7355804443359375,
0,2023-09-09 22:11:39.1360,02:25,10,1,2023-09-09 22:11:49.4390,1694315509.438922,-0.0026101642288267612,-0.004739094991236925,-0.003608849598094821,0.0450439453125,-0.071502685546875,-0.99542236328125,111.87055969238281,-29.122909545898438,-38.62696838378906,2023-09-09 22:11:49.0990,1694315509.099028,-0.03561333566904068,-0.0003963429480791092,0.006765472237020731,0.07788083702325821,0.6668702363967896,-0.733551025390625,
0,2023-09-09 22:11:39.1360,02:25,10,1,2023-09-09 22:11:49.5380,1694315509.538429,-0.00560994865372777,-0.007001983001828194,-0.0019092201255261898,0.0458221435546875,-0.069488525390625,-1.0036773681640625,111.75782775878906,-29.128082275390625,-38.47137451171875,2023-09-09 22:11:49.1990,1694315509.199034,-0.012078648433089256,0.0011620055884122849,0.00012298289220780134,0.08306882530450821,0.6749725937843323,-0.730987548828125,
0,2023-09-09 22:11:39.1360,02:25,10,1,2023-09-09 22:11:49.6400,1694315509.639648,-0.006313555873930454,-0.001580319833010435,-0.004799549002200365,0.04638671875,-0.070526123046875,-0.9996337890625,111.7734375,-29.2325439453125,-38.61079406738281,2023-09-09 22:11:49.2990,1694315509.2988172,-0.009701711125671864,-0.004686961881816387,-0.0006118165911175311,0.07832331955432892,0.6791840195655823,-0.7313995361328125,
0,2023-09-09 22:11:39.1360,02:25,10,1,2023-09-09 22:11:49.7380,1694315509.7382622,5.5926382628967986e-05,-0.003412840887904167,-0.0031244205310940742,0.0490875244140625,-0.068878173828125,-0.99853515625,111.74174499511719,-29.131271362304688,-38.61116027832031,2023-09-09 22:11:49.3990,1694315509.398565,-0.011099670082330704,0.002283196896314621,-0.00046983681386336684,0.08168026804924011,0.6719208359718323,-0.7281035780906677,
0,2023-09-09 22:11:39.1360,02:25,10,1,2023-09-09 22:11:49.8390,1694315509.839172,0.004656270612031221,-0.0011211908422410488,-0.002627208363264799,0.048126220703125,-0.0694580078125,-0.9927825927734375,111.84158325195312,-29.211105346679688,-38.4180908203125,2023-09-09 22:11:49.4980,1694315509.498324,0.08432378619909286,-0.0031959908083081245,0.03300263360142708,0.0764007419347763,0.6790924668312073,-0.725921630859375,
0,2023-09-09 22:11:39.1360,02:25,10,1,2023-09-09 22:11:49.9390,1694315509.939292,0.003338006092235446,-0.0035984632559120655,-0.005578789860010147,0.0467529296875,-0.0713958740234375,-0.9929046630859375,111.67626953125,-28.904159545898438,-38.408782958984375,2023-09-09 22:11:49.6010,1694315509.600663,0.04678346961736679,-0.0029073040932416916,-0.0017799122724682093,0.07823176681995392,0.6594849228858948,-0.7400206923484802,
0,2023-09-09 22:11:39.1360,02:25,10,1,2023-09-09 22:11:50.0390,1694315510.039167,-0.002261290093883872,-0.0037800907157361507,-0.0037830201908946037,0.043701171875,-0.0710601806640625,-0.9958953857421875,111.74189758300781,-28.950927734375,-38.343597412109375,2023-09-09 22:11:49.6980,1694315509.69824,0.35606294870376587,0.006303904578089714,0.06000545620918274,0.0809478610754013,0.6640778183937073,-0.7442474365234375,
0,2023-09-09 22:11:39.1360,02:25,10,1,2023-09-09 22:11:50.1380,1694315510.1376638,0.0024554345291107893,-0.005654157139360905,-0.0025648903101682663,0.0493316650390625,-0.069305419921875,-0.9987640380859375,111.74867248535156,-29.029205322265625,-38.4827880859375,2023-09-09 22:11:49.7980,1694315509.798439,0.28580012917518616,0.03534594178199768,0.07287139445543289,0.08326718211174011,0.66998291015625,-0.7679747939109802,
0,2023-09-09 22:11:39.1360,02:25,10,1,2023-09-09 22:11:50.2400,1694315510.239579,4.6871635277057067e-05,-0.00878949649631977,-0.0016828514635562897,0.0527191162109375,-0.069549560546875,-0.99468994140625,111.73867797851562,-29.015655517578125,-38.43840026855469,2023-09-09 22:11:49.8980,1694315509.89778,1.0064626932144165,-0.15136387944221497,0.12248924374580383,0.09861753135919571,0.6574707627296448,-0.8103789687156677,
0,2023-09-09 22:11:39.1360,02:25,10,1,2023-09-09 22:11:50.3390,1694315510.339145,-0.0031382690649479628,-0.0021899172570556402,-0.003733485471457243,0.048431396484375,-0.06903076171875,-0.9944610595703125,111.7091064453125,-28.999893188476562,-38.53271484375,2023-09-09 22:11:49.9980,1694315509.9975681,0.4418453276157379,-0.0590299591422081,0.02751818858087063,0.03355404734611511,0.5235138535499573,-0.8514403700828552,
0,2023-09-09 22:11:39.1360,02:25,10,1,2023-09-09 22:11:50.4390,1694315510.439192,-0.0005427522119134665,-0.005102883093059063,-0.004005926661193371,0.0462799072265625,-0.0697021484375,-0.9947662353515625,111.70088195800781,-28.924362182617188,-38.44981384277344,2023-09-09 22:11:50.0970,1694315510.097406,0.33289626240730286,0.0009136665612459183,0.053829655051231384,0.07463071495294571,0.5305023789405823,-0.9336394667625427,
0,2023-09-09 22:11:39.1360,02:25,10,1,2023-09-09 22:11:50.5390,1694315510.5385308,-0.0036509274505078793,-0.0071069118566811085,-0.004226436838507652,0.04498291015625,-0.069854736328125,-0.9998321533203125,111.77305603027344,-29.044036865234375,-38.1732177734375,2023-09-09 22:11:50.1970,1694315510.197293,0.1828823834657669,-0.04172354191541672,-0.1115989238023758,-0.06098940968513489,0.4464569091796875,-0.8809051513671875,
0,2023-09-09 22:11:39.1360,02:25,10,1,2023-09-09 22:11:50.6380,1694315510.6383991,0.001365402713418007,-0.006739395204931498,-0.0024261397775262594,0.0447235107421875,-0.071197509765625,-0.9983367919921875,111.69087219238281,-28.907669067382812,-38.29002380371094,2023-09-09 22:11:50.2970,1694315510.297086,0.06473776698112488,-0.08994247019290924,-0.054653413593769073,-0.05883791297674179,0.4935913681983948,-0.8776397705078125,
0,2023-09-09 22:11:39.1360,02:25,10,1,2023-09-09 22:11:50.7370,1694315510.73722,-0.006627276539802551,-0.004677043296396732,-0.0037854171823710203,0.0498199462890625,-0.069610595703125,-0.9988250732421875,112.07737731933594,-29.461822509765625,-37.559722900390625,2023-09-09 22:11:50.3970,1694315510.3971581,-0.38479411602020264,-0.20800279080867767,-0.2690548598766327,-0.01634218543767929,0.3766632676124573,-0.7805632948875427,
0,2023-09-09 22:11:39.1360,02:25,10,1,2023-09-09 22:11:50.8390,1694315510.839055,-0.0023643544409424067,-0.0032296155113726854,-0.004047205671668053,0.04364013671875,-0.070404052734375,-0.9979400634765625,111.94450378417969,-29.1298828125,-38.0283203125,2023-09-09 22:11:50.4970,1694315510.496778,-0.20328707993030548,-0.30213820934295654,-0.20421916246414185,0.057281456887722015,0.3380127251148224,-0.8092041015625,
0,2023-09-09 22:11:39.1360,02:25,10,1,2023-09-09 22:11:50.9390,1694315510.939184,-0.0035478631034493446,-0.002847185591235757,-0.001987250754609704,0.0459136962890625,-0.0684356689453125,-0.997283935546875,111.91082763671875,-29.182281494140625,-38.025360107421875,2023-09-09 22:11:50.5970,1694315510.596709,-1.053309440612793,-0.4067249298095703,-0.28673964738845825,0.08064267388544977,0.13523870706558228,-0.8597869873046875,
0,2023-09-09 22:11:39.1360,02:25,10,1,2023-09-09 22:11:51.0390,1694315511.039016,0.0003177151083946228,-0.003005377249792218,-0.003719370812177658,0.043304443359375,-0.0690765380859375,-0.9937591552734375,111.85792541503906,-29.111297607421875,-38.5018310546875,2023-09-09 22:11:50.6960,1694315510.696476,-0.5991068482398987,-0.5059685707092285,-0.24032844603061676,0.14007564634084702,0.3970947563648224,-0.811431884765625,
0,2023-09-09 22:11:39.1360,02:25,10,1,2023-09-09 22:11:51.1380,1694315511.1378078,0.0004751079250127077,-0.004216316621750593,-0.001329982653260231,0.04278564453125,-0.0691680908203125,-0.997406005859375,111.87910461425781,-29.323684692382812,-38.31770324707031,2023-09-09 22:11:50.7960,1694315510.796267,0.5709941387176514,-0.5365545749664307,-0.6212021708488464,-0.21241763979196548,0.6555328965187073,-0.714996337890625,
0,2023-09-09 22:11:39.1360,02:25,10,1,2023-09-09 22:11:51.2390,1694315511.238796,0.000945954816415906,-0.0059508332051336765,-0.0033878071699291468,0.0451812744140625,-0.0659332275390625,-0.9959259033203125,111.93612670898438,-29.164627075195312,-38.63946533203125,2023-09-09 22:11:50.8960,1694315510.8961391,-1.0203444957733154,-0.702107310295105,-0.7729001641273499,-0.12393192946910858,0.3604126572608948,-0.722381591796875,
0,2023-09-09 22:11:39.1360,02:25,10,1,2023-09-09 22:11:51.3390,1694315511.338687,-0.0032565132714807987,-0.0031353395897895098,-0.0040975394658744335,0.0447540283203125,-0.06866455078125,-0.995452880859375,111.96975708007812,-29.223587036132812,-38.308380126953125,2023-09-09 22:11:50.9960,1694315510.995898,-1.6906505823135376,-1.1089558601379395,-0.502048909664154,-0.42718514800071716,0.5449677109718323,-0.5518798232078552,
0,2023-09-09 22:11:39.1360,02:25,10,1,2023-09-09 22:11:51.4380,1694315511.437509,-0.003242132253944874,-0.00270630419254303,-0.00290364446118474,0.04351806640625,-0.0694580078125,-0.9963531494140625,111.82490539550781,-29.070220947265625,-38.507843017578125,2023-09-09 22:11:51.0960,1694315511.095866,-1.9697469472885132,-0.5333347916603088,-0.6989659070968628,-0.1912842094898224,0.6413116455078125,-0.8325042128562927,
0,2023-09-09 22:11:39.1360,02:25,10,1,2023-09-09 22:11:51.5380,1694315511.538203,0.0007872303831391037,-0.004697283264249563,-0.0020690099336206913,0.045654296875,-0.068756103515625,-0.9979248046875,111.72830200195312,-29.244277954101562,-38.488006591796875,2023-09-09 22:11:51.1960,1694315511.195816,-0.1771230697631836,-0.6491839289665222,-0.7268941402435303,-0.4906769394874573,0.7074432373046875,-0.6398314833641052,
0,2023-09-09 22:11:39.1360,02:25,10,1,2023-09-09 22:11:51.6400,1694315511.640106,-0.004730839282274246,-0.0020751350093632936,-0.0032858080230653286,0.0464324951171875,-0.0694122314453125,-0.99664306640625,111.88330078125,-29.079391479492188,-38.426361083984375,2023-09-09 22:11:51.2950,1694315511.2954888,0.8097865581512451,-1.0020283460617065,-0.6076322793960571,-0.520950436592102,0.7291260957717896,-0.6521605551242828,
0,2023-09-09 22:11:39.1360,02:25,10,1,2023-09-09 22:11:51.7390,1694315511.738995,-0.00213665422052145,-0.004126834217458963,-0.0033076461404561996,0.0454864501953125,-0.0694580078125,-0.9980316162109375,111.86697387695312,-29.122756958007812,-38.406036376953125,2023-09-09 22:11:51.3950,1694315511.3953319,0.8134289383888245,-1.2880619764328003,-0.5847951769828796,-0.8294830918312073,0.9094237685203552,-0.4268187880516052,
0,2023-09-09 22:11:39.1360,02:25,10,1,2023-09-09 22:11:51.8390,1694315511.839139,-0.001868473831564188,-0.00695058424025774,-0.0022543659433722496,0.0465240478515625,-0.0699615478515625,-0.9977264404296875,111.70628356933594,-29.105758666992188,-38.58769226074219,2023-09-09 22:11:51.4950,1694315511.4951959,0.36613863706588745,-1.2575788497924805,-0.6543974280357361,-0.870987057685852,0.524810791015625,-0.28707876801490784,
0,2023-09-09 22:11:39.1360,02:25,10,1,2023-09-09 22:11:51.9390,1694315511.939005,8.602010348113254e-05,-0.0033593112602829933,-0.0027169568929821253,0.047393798828125,-0.0693511962890625,-0.996185302734375,111.89305114746094,-29.207534790039062,-38.251007080078125,2023-09-09 22:11:51.5950,1694315511.594969,0.150112122297287,-0.8678469061851501,-0.45798173546791077,-0.6410523056983948,0.5735015869140625,-0.37243643403053284,
0,2023-09-09 22:11:39.1360,02:25,10,1,2023-09-09 22:11:52.0370,1694315512.0371609,-0.003230147995054722,-0.004279699642211199,-0.0046730488538742065,0.044921875,-0.070281982421875,-0.9966583251953125,111.97117614746094,-29.236602783203125,-38.231781005859375,2023-09-09 22:11:51.6950,1694315511.6949239,0.14257730543613434,-0.5106948018074036,-0.6298627257347107,-0.8535767197608948,0.41796875,-0.26034538447856903,
0,2023-09-09 22:11:39.1360,02:25,10,1,2023-09-09 22:11:52.1380,1694315512.1375,-0.0005398227367550135,-0.004048004746437073,-0.0025933862198144197,0.0453948974609375,-0.06976318359375,-0.997283935546875,111.81147766113281,-29.190017700195312,-38.010467529296875,2023-09-09 22:11:51.7950,1694315511.7948198,0.32243722677230835,-0.322232186794281,-0.5735158920288086,-0.8795319199562073,0.3443756401538849,-0.12774652242660522,
0,2023-09-09 22:11:39.1360,02:25,10,1,2023-09-09 22:11:52.2380,1694315512.238373,-0.001079645473510027,-0.0025779400020837784,-0.0029763488564640284,0.0450897216796875,-0.0699920654296875,-0.997406005859375,111.78179931640625,-29.2294921875,-38.01536560058594,2023-09-09 22:11:51.8950,1694315511.894634,0.19971203804016113,-0.230112224817276,-0.15163612365722656,-0.9651948809623718,0.17283636331558228,-0.31732170283794403,
0,2023-09-09 22:11:39.1360,02:25,10,1,2023-09-09 22:11:52.3390,1694315512.338795,-0.002295911079272628,0.00036458674003370106,-0.0037742317654192448,0.0460968017578125,-0.0697479248046875,-0.997650146484375,112.0159912109375,-29.183761596679688,-38.05877685546875,2023-09-09 22:11:51.9940,1694315511.994379,-0.13610731065273285,-0.2462625652551651,-0.04020782560110092,-0.8962249755859375,0.2810058295726776,-0.22117602825164795,
0,2023-09-09 22:11:39.1360,02:25,10,1,2023-09-09 22:11:52.4390,1694315512.4388828,-0.0012394351651892066,-0.006391320377588272,-0.0007486145477741957,0.043609619140625,-0.0701141357421875,-0.9962310791015625,111.94230651855469,-29.382476806640625,-38.20936584472656,2023-09-09 22:11:52.0940,1694315512.094252,-0.08219089359045029,-0.3278971016407013,0.23675349354743958,-0.8329010605812073,0.3444976806640625,-0.29675281047821045,
0,2023-09-09 22:11:39.1360,02:25,10,1,2023-09-09 22:11:52.5380,1694315512.538089,-0.0008724515791982412,-0.005372128449380398,-0.001487641828134656,0.04400634765625,-0.06976318359375,-0.9971771240234375,111.895751953125,-29.0369873046875,-38.412384033203125,2023-09-09 22:11:52.1940,1694315512.194028,0.20398034155368805,-0.4083673357963562,0.28671735525131226,-1.040023922920227,0.2530364990234375,-0.17578113824129105,
0,2023-09-09 22:11:39.1360,02:25,10,1,2023-09-09 22:11:52.6390,1694315512.638931,-0.0005291700945235789,-0.007909055799245834,-0.0031273500062525272,0.044586181640625,-0.0692291259765625,-0.9944915771484375,111.93696594238281,-29.285858154296875,-38.38978576660156,2023-09-09 22:11:52.2940,1694315512.2939138,-0.28125590085983276,-0.3513305187225342,0.2734236717224121,-0.8282167315483093,0.31550607085227966,-0.14492785558104515,
0,2023-09-09 22:11:39.1360,02:25,10,1,2023-09-09 22:11:52.7390,1694315512.73856,0.0007643272401764989,-0.0016841830220073462,-0.002353968098759651,0.043487548828125,-0.0706634521484375,-0.9951019287109375,111.8958740234375,-29.20684814453125,-38.377655029296875,2023-09-09 22:11:52.3940,1694315512.393678,-0.07476173341274261,-0.3491954803466797,0.26227936148643494,-0.9120026230812073,0.3646240234375,-0.13839711248874664,
0,2023-09-09 22:11:39.1360,02:25,10,1,2023-09-09 22:11:52.8380,1694315512.8379722,-0.00253453035838902,-0.007487477269023657,-0.0028037759475409985,0.047119140625,-0.069305419921875,-0.998138427734375,111.79458618164062,-28.900360107421875,-38.48664855957031,2023-09-09 22:11:52.4940,1694315512.493643,-0.14345631003379822,-0.21772919595241547,0.24310603737831116,-0.8926085829734802,0.5167236030101776,0.0020295400172472,
0,2023-09-09 22:11:39.1360,02:25,10,1,2023-09-09 22:11:52.9380,1694315512.938139,-0.00449781259521842,-0.00657534459605813,-0.002633866388350725,0.04833984375,-0.07025146484375,-0.998779296875,111.75828552246094,-28.616134643554688,-38.43879699707031,2023-09-09 22:11:52.5940,1694315512.593535,-0.07232075184583664,-0.29338589310646057,0.3391108214855194,-0.9188385009765625,0.4432677924633026,0.05136126093566418,
0,2023-09-09 22:11:39.1360,02:25,10,1,2023-09-09 22:11:53.0370,1694315513.0367641,-0.0019323896849527955,-0.003203516360372305,-0.0032887374982237816,0.045135498046875,-0.0696258544921875,-0.9969635009765625,111.80967712402344,-28.880661010742188,-38.503387451171875,2023-09-09 22:11:52.6930,1694315512.6933088,0.046854108572006226,-0.1836409866809845,0.28829461336135864,-0.8772888779640198,0.5099945068359375,0.08061223477125168,
0,2023-09-09 22:11:39.1360,02:25,10,1,2023-09-09 22:11:53.1370,1694315513.137177,0.00902571901679039,0.0037233654875308275,-0.00048709215479902923,0.0471954345703125,-0.0693359375,-0.998260498046875,111.99098205566406,-29.324554443359375,-38.55609130859375,2023-09-09 22:11:52.7930,1694315512.793112,-0.058161456137895584,0.04151768237352371,0.17841070890426636,-0.8360596299171448,0.4804840683937073,0.07125871255993843,
0,2023-09-09 22:11:39.1360,02:25,10,1,2023-09-09 22:11:53.2390,1694315513.238904,-0.002671683207154274,-0.006124471314251423,-0.0022628880105912685,0.0456695556640625,-0.0691986083984375,-0.9970703125,111.88461303710938,-29.229034423828125,-38.545379638671875,2023-09-09 22:11:52.8930,1694315512.8929791,0.06945642828941345,-0.12257537990808487,0.10890845209360123,-0.8988646268844604,0.5427093505859375,0.060012925416231155,
0,2023-09-09 22:11:39.1360,02:25,10,1,2023-09-09 22:11:53.3390,1694315513.3388019,-0.00301682879216969,-0.00330311874859035,-0.0007749798824079335,0.0462799072265625,-0.069305419921875,-0.9980621337890625,111.78424072265625,-28.864776611328125,-38.4698486328125,2023-09-09 22:11:52.9930,1694315512.9928288,0.0047995345667004585,0.06587842106819153,0.08745276182889938,-0.836593747138977,0.5568084716796875,0.04479986056685448,
0,2023-09-09 22:11:39.1360,02:25,10,1,2023-09-09 22:11:53.4380,1694315513.438015,-0.00304638990201056,-0.004744687583297491,-0.0012966931099072099,0.0466156005859375,-0.0686492919921875,-0.9975738525390625,111.87030029296875,-29.110946655273438,-38.35295104980469,2023-09-09 22:11:53.0930,1694315513.092785,-0.013806373812258244,0.1015610471367836,0.1268881857395172,-0.816131591796875,0.528961181640625,0.06715403497219086,
0,2023-09-09 22:11:39.1360,02:25,10,1,2023-09-09 22:11:53.5390,1694315513.539196,-0.00046046054922044277,-0.006258961278945208,-0.002669286448508501,0.0458221435546875,-0.068389892578125,-0.9958648681640625,111.69186401367188,-29.083160400390625,-38.35060119628906,2023-09-09 22:11:53.1920,1694315513.192476,-0.03216760605573654,0.001221527811139822,0.09516105055809021,-0.8085784316062927,0.511322021484375,0.027694839984178543,
0,2023-09-09 22:11:39.1360,02:25,10,1,2023-09-09 22:11:53.6390,1694315513.638771,-0.0009454221581108868,-0.0020511667244136333,-0.004484497010707855,0.046142578125,-0.0716094970703125,-0.9976348876953125,111.86518859863281,-28.91168212890625,-38.436431884765625,2023-09-09 22:11:53.2920,1694315513.2923,-0.0491335391998291,-0.04987840726971626,0.023079929873347282,-0.8834686875343323,0.5407257676124573,0.007675353437662125,
0,2023-09-09 22:11:39.1360,02:25,10,1,2023-09-09 22:11:53.7380,1694315513.737524,0.0011949603212997317,-0.003768905531615019,-0.0019289276096969843,0.0450897216796875,-0.070159912109375,-0.996826171875,111.92276000976562,-29.047134399414062,-38.33808898925781,2023-09-09 22:11:53.3920,1694315513.392091,0.030235983431339264,-0.1177770346403122,0.08730026334524155,-0.8561554551124573,0.5688018202781677,0.041931211948394775,
0,2023-09-09 22:11:39.1360,02:25,10,1,2023-09-09 22:11:53.8390,1694315513.8391109,-0.0015283881220966578,-0.00905741099268198,-0.0033401367254555225,0.045257568359375,-0.070281982421875,-0.9985809326171875,111.949462890625,-29.278656005859375,-38.29383850097656,2023-09-09 22:11:53.4920,1694315513.4920301,0.03817659988999367,-0.0924152210354805,0.09090451896190643,-0.8413543701171875,0.5828856825828552,0.05740378051996231,
0,2023-09-09 22:11:39.1360,02:25,10,1,2023-09-09 22:11:53.9390,1694315513.938822,-0.004123372491449118,-0.004349741153419018,-0.002369148191064596,0.0481719970703125,-0.069549560546875,-0.999603271484375,111.78036499023438,-28.945144653320312,-38.392364501953125,2023-09-09 22:11:53.5920,1694315513.591718,0.09563696384429932,0.019968584179878235,0.0391053706407547,-0.8608095049858093,0.5958253145217896,0.04801959544420242,
0,2023-09-09 22:11:39.1360,02:25,10,1,2023-09-09 22:11:54.0380,1694315514.038285,-0.003450924064964056,-0.005044559482485056,-0.0010953581659123302,0.0437164306640625,-0.069732666015625,-0.9964752197265625,111.91943359375,-28.901382446289062,-38.606048583984375,2023-09-09 22:11:53.6920,1694315513.691818,0.03910171613097191,0.11893071234226227,0.049591198563575745,-0.7714080214500427,0.6189422607421875,0.05455031991004944,
0,2023-09-09 22:11:39.1360,02:25,10,1,2023-09-09 22:11:54.1390,1694315514.138973,-0.0011174624087288976,-0.006183593533933163,-0.002900448627769947,0.0446929931640625,-0.070037841796875,-0.996826171875,111.88163757324219,-28.981491088867188,-38.52488708496094,2023-09-09 22:11:53.7920,1694315513.791563,0.07541704922914505,0.15781328082084656,0.005825110245496035,-0.8076019883155823,0.6008148193359375,0.04580702260136604,
0,2023-09-09 22:11:39.1360,02:25,10,1,2023-09-09 22:11:54.2370,1694315514.236841,-0.004677309654653072,-0.0057502975687384605,-0.0026160231791436672,0.046112060546875,-0.0705108642578125,-0.99871826171875,111.95748901367188,-29.1605224609375,-38.386322021484375,2023-09-09 22:11:53.8920,1694315513.8915439,0.003056562040001154,0.00117918336763978,-0.021669631823897362,-0.802642822265625,0.5977020263671875,-0.0010222643613815308,
0,2023-09-09 22:11:39.1360,02:25,10,1,2023-09-09 22:11:54.3390,1694315514.339236,-0.000568318588193506,-0.005663478281348944,-0.003037335118278861,0.046966552734375,-0.0706634521484375,-0.99993896484375,111.99288940429688,-29.167526245117188,-38.523956298828125,2023-09-09 22:11:53.9910,1694315513.991222,0.008374362252652645,-0.0545719675719738,-0.03584497049450874,-0.844864010810852,0.5683746933937073,0.0018617603927850723,
0,2023-09-09 22:11:39.1360,02:25,10,1,2023-09-09 22:11:54.4390,1694315514.4389539,-0.006451241206377745,-0.006343916058540344,-0.004880775231868029,0.0473175048828125,-0.0691375732421875,-0.997894287109375,111.87527465820312,-28.982772827148438,-38.454620361328125,2023-09-09 22:11:54.0920,1694315514.0915852,-0.024739915505051613,-0.03735196590423584,0.053411006927490234,-0.8020324110984802,0.5662384033203125,0.03604131191968918,
0,2023-09-09 22:11:39.1360,02:25,10,1,2023-09-09 22:11:54.5390,1694315514.538834,-0.004058657679706812,-0.004552407655864954,-0.002983805723488331,0.04644775390625,-0.0697174072265625,-0.9988861083984375,111.86703491210938,-29.163864135742188,-38.545318603515625,2023-09-09 22:11:54.1910,1694315514.19104,-0.11440727859735489,-0.008964929729700089,0.035861603915691376,-0.798431396484375,0.5611114501953125,0.042556870728731155,
0,2023-09-09 22:11:39.1360,02:25,10,1,2023-09-09 22:11:54.6390,1694315514.6389089,-0.0008029430755414069,-0.004737230949103832,-0.0022985744290053844,0.0455322265625,-0.0690155029296875,-0.9979705810546875,111.810791015625,-28.994216918945312,-38.40838623046875,2023-09-09 22:11:54.2910,1694315514.290728,-0.05845187231898308,-0.02052944153547287,0.03869054839015007,-0.773834228515625,0.5931701064109802,0.03854384645819664,
0,2023-09-09 22:11:39.1360,02:25,10,1,2023-09-09 22:11:54.7390,1694315514.7386708,-0.0011001517996191978,-0.006280798930674791,-0.003553189570084214,0.04498291015625,-0.07037353515625,-0.9981842041015625,111.89503479003906,-28.9635009765625,-38.46073913574219,2023-09-09 22:11:54.3910,1694315514.3905401,-0.11432971805334091,-0.13401086628437042,0.07809970527887344,-0.778839111328125,0.5439300537109375,0.053970515727996826,
0,2023-09-09 22:11:39.1360,02:25,10,1,2023-09-09 22:11:54.8390,1694315514.838841,-0.0006913566030561924,-0.006573214195668697,-0.004612328484654427,0.0460205078125,-0.0692138671875,-0.9972686767578125,111.90403747558594,-28.991180419921875,-38.6544189453125,2023-09-09 22:11:54.4900,1694315514.4903998,-0.06310981512069702,-0.10022387653589249,-0.012897511012852192,-0.8165436387062073,0.5682221055030823,0.04054274782538414,
0,2023-09-09 22:11:39.1360,02:25,10,1,2023-09-09 22:11:54.9380,1694315514.938222,-0.0021286646369844675,-0.0028301412239670753,-0.0031491878908127546,0.047027587890625,-0.070709228515625,-0.998382568359375,111.95477294921875,-29.068450927734375,-38.48542785644531,2023-09-09 22:11:54.5900,1694315514.590304,0.0021054139360785484,0.05857190489768982,-0.024850310757756233,-0.7730560302734375,0.5722350478172302,0.07534810528159142,
0,2023-09-09 22:11:39.1360,02:25,10,1,2023-09-09 22:11:55.0390,1694315515.038748,-0.0008892294717952609,-0.004253600724041462,-0.002435460686683655,0.0436248779296875,-0.0705108642578125,-0.9970550537109375,111.90478515625,-28.834259033203125,-38.46916198730469,2023-09-09 22:11:54.6900,1694315514.690174,-0.03070106729865074,0.15339815616607666,-0.04364633560180664,-0.8130034804344177,0.6161498427391052,0.058166615664958954,
0,2023-09-09 22:11:39.1360,02:25,10,1,2023-09-09 22:11:55.1380,1694315515.13842,-0.0014317154418677092,-0.005041896365582943,-0.0028099012561142445,0.0442047119140625,-0.07012939453125,-0.996368408203125,111.83917236328125,-28.706039428710938,-38.18107604980469,2023-09-09 22:11:54.7900,1694315514.7900429,-0.10247685760259628,0.24832598865032196,-0.03810769319534302,-0.8258972764015198,0.613555908203125,0.06402602419257164,
0,2023-09-09 22:11:39.1360,02:25,10,1,2023-09-09 22:11:55.2390,1694315515.239276,-0.00526746641844511,-0.002502838848158717,-0.002341451123356819,0.04644775390625,-0.0700836181640625,-0.9958648681640625,111.87344360351562,-28.88818359375,-37.99151611328125,2023-09-09 22:11:54.8900,1694315514.889796,0.030401166528463364,0.0007769125513732433,-0.018800508230924606,-0.8498842120170593,0.608139157295227,0.016342315822839737,
0,2023-09-09 22:11:39.1360,02:25,10,1,2023-09-09 22:11:55.3370,1694315515.3369188,-0.003117762738838792,-0.004034955520182848,-0.004761465825140476,0.0422210693359375,-0.0696563720703125,-0.997344970703125,112.00831604003906,-29.086273193359375,-37.75624084472656,2023-09-09 22:11:54.9900,1694315514.989656,0.046802178025245667,-0.08286432176828384,-0.04266253113746643,-0.820587158203125,0.6328887939453125,0.03530887886881828,
0,2023-09-09 22:11:39.1360,02:25,10,1,2023-09-09 22:11:55.4390,1694315515.4388862,-0.001970206620171666,-0.0046908920630812645,-0.0033832797780632973,0.0438079833984375,-0.069671630859375,-0.99658203125,112.04983520507812,-29.298614501953125,-37.73780822753906,2023-09-09 22:11:55.0900,1694315515.089641,-0.0031713068019598722,-0.0228812787681818,-0.06630590558052063,-0.8428041338920593,0.6184998750686646,0.058197081089019775,
0,2023-09-09 22:11:39.1360,02:25,10,1,2023-09-09 22:11:55.5380,1694315515.538157,0.0023939155507832766,-0.003087935270741582,-0.002326803747564554,0.044769287109375,-0.06854248046875,-0.99658203125,112.00479125976562,-29.052276611328125,-38.333831787109375,2023-09-09 22:11:55.1890,1694315515.189313,0.05580858886241913,-0.09034886956214905,-0.048957109451293945,-0.8354645371437073,0.5883483290672302,0.05931109935045242,
0,2023-09-09 22:11:39.1360,02:25,10,1,2023-09-09 22:11:55.6370,1694315515.637228,0.0012551478575915098,-0.004523112904280424,-0.0027238810434937477,0.0447998046875,-0.06982421875,-0.9965972900390625,111.9246826171875,-29.138534545898438,-38.4573974609375,2023-09-09 22:11:55.2890,1694315515.2891412,0.03801647946238518,-0.020879646763205528,-0.00674224691465497,-0.87469482421875,0.5970001220703125,0.04623420909047127,
0,2023-09-09 22:11:39.1360,02:25,10,1,2023-09-09 22:11:55.7380,1694315515.738368,-0.006000900641083717,-0.0022240057587623596,-0.0019797938875854015,0.0440673828125,-0.0711669921875,-0.9965972900390625,112.01669311523438,-28.966217041015625,-38.201324462890625,2023-09-09 22:11:55.3890,1694315515.38904,0.020752135664224625,-0.027360450476408005,0.02178933098912239,-0.8457947373390198,0.5877075791358948,0.024795688688755035,
0,2023-09-09 22:11:39.1360,02:25,10,1,2023-09-09 22:11:55.8390,1694315515.8386521,0.0035928706638514996,-0.004092213232070208,-0.0037846181076020002,0.0449676513671875,-0.0711212158203125,-0.99945068359375,111.91358947753906,-28.865432739257812,-38.26811218261719,2023-09-09 22:11:55.4890,1694315515.488838,0.03111456148326397,-0.05388167127966881,0.045771725475788116,-0.7803956270217896,0.5429382920265198,0.05928046256303787,
0,2023-09-09 22:11:39.1360,02:25,10,1,2023-09-09 22:11:55.9370,1694315515.936785,-0.0021172130946069956,-0.005602758377790451,-0.0027262780349701643,0.047515869140625,-0.0692901611328125,-0.9971923828125,111.83860778808594,-28.967391967773438,-38.318267822265625,2023-09-09 22:11:55.5890,1694315515.588615,-0.0007650742772966623,0.012164190411567688,0.04410086199641228,-0.783187985420227,0.5598145127296448,0.06633013114333153,
0,2023-09-09 22:11:39.1360,02:25,10,1,2023-09-09 22:11:56.0390,1694315516.0390801,0.004721251782029867,-0.0031135017052292824,-0.0009118663729168475,0.0480804443359375,-0.0684356689453125,-0.9997100830078125,111.87435913085938,-28.773300170898438,-38.36531066894531,2023-09-09 22:11:55.6880,1694315515.688469,0.013008128851652145,-0.003993207588791847,0.027134858071804047,-0.7767639756202698,0.5944824814796448,0.05072043463587761,
0,2023-09-09 22:11:39.1360,02:25,10,1,2023-09-09 22:11:56.1390,1694315516.138846,-0.004268780816346407,-0.0033598439767956734,-0.001976331928744912,0.04193115234375,-0.0703277587890625,-0.996185302734375,111.92512512207031,-28.932418823242188,-38.39918518066406,2023-09-09 22:11:55.7880,1694315515.7883592,0.03327931463718414,-0.04787171632051468,0.0014368200208991766,-0.78851318359375,0.56451416015625,0.033874619752168655,
0,2023-09-09 22:11:39.1360,02:25,10,1,2023-09-09 22:11:56.2380,1694315516.238014,-0.0018024274613708258,-0.00267754215747118,-0.0034677020739763975,0.0437774658203125,-0.0700836181640625,-0.996063232421875,111.74468994140625,-28.64581298828125,-38.59867858886719,2023-09-09 22:11:55.8880,1694315515.8882241,-0.00670086033642292,0.01355888694524765,0.041357073932886124,-0.7852936387062073,0.5208283066749573,0.05442818999290466,
0,2023-09-09 22:11:39.1360,02:25,10,1,2023-09-09 22:11:56.3370,1694315516.3368502,-0.0016277240356430411,-0.00631914846599102,-0.0016916398890316486,0.048431396484375,-0.06927490234375,-0.998992919921875,111.78640747070312,-28.78851318359375,-38.68095397949219,2023-09-09 22:11:55.9880,1694315515.988027,-0.03307221457362175,-0.031937092542648315,0.043236032128334045,-0.7429354190826416,0.574966549873352,0.061065834015607834,
0,2023-09-09 22:11:39.1360,02:25,10,1,2023-09-09 22:11:56.4380,1694315516.437743,-0.00014407701382879168,-0.004178233444690704,-0.0025180187076330185,0.0439910888671875,-0.0687255859375,-0.9974365234375,111.81707763671875,-28.816070556640625,-38.55859375,2023-09-09 22:11:56.0880,1694315516.088054,-0.042790889739990234,0.031068772077560425,0.01772228255867958,-0.8137817978858948,0.5700682997703552,0.07447823882102966,
0,2023-09-09 22:11:39.1360,02:25,10,1,2023-09-09 22:11:56.5360,1694315516.536388,-0.0007126618875190616,-0.006777478381991386,-0.0019185412675142288,0.044036865234375,-0.06915283203125,-0.9962158203125,111.97679138183594,-29.033370971679688,-37.51887512207031,2023-09-09 22:11:56.1880,1694315516.187628,-0.0054531702771782875,-0.0167689248919487,-0.0007376509602181613,-0.8440706729888916,0.5801087021827698,0.07406629249453545,
0,2023-09-09 22:11:39.1360,02:25,10,1,2023-09-09 22:11:56.6390,1694315516.638911,-0.0017060210229828954,-0.0021760689560323954,-0.0012114719720557332,0.04754638671875,-0.0684967041015625,-0.998504638671875,111.79646301269531,-28.813568115234375,-38.49208068847656,2023-09-09 22:11:56.2880,1694315516.287839,0.004567972384393215,-0.04365739971399307,-0.013570591807365417,-0.8194124102592468,0.5896302461624146,0.07328812032938004,
0,2023-09-09 22:11:39.1360,02:25,10,1,2023-09-09 22:11:56.7380,1694315516.738435,-0.0015243934467434883,-0.005021123681217432,-0.0027198863681405783,0.0465850830078125,-0.0703582763671875,-0.99786376953125,111.76564025878906,-28.850830078125,-38.350189208984375,2023-09-09 22:11:56.3870,1694315516.387434,-0.026948608458042145,0.0018026293255388737,-0.010259649716317654,-0.8504180908203125,0.5683440566062927,0.07632453739643097,
0,2023-09-09 22:11:39.1360,02:25,10,1,2023-09-09 22:11:56.8370,1694315516.837079,-0.003397394670173526,-0.0037758296821266413,-0.002891926560550928,0.0459747314453125,-0.0708160400390625,-0.99932861328125,111.80128479003906,-28.80877685546875,-38.427276611328125,2023-09-09 22:11:56.4870,1694315516.487355,0.02315843477845192,-0.039688751101493835,-0.0035111666657030582,-0.8318483233451843,0.5812684297561646,0.04776010662317276,
0,2023-09-09 22:11:39.1360,02:25,10,1,2023-09-09 22:11:56.9390,1694315516.9387522,-0.0006756439688615501,-0.00552312983199954,-0.002944657113403082,0.04498291015625,-0.0705413818359375,-0.9987945556640625,111.67535400390625,-28.902450561523438,-38.51319885253906,2023-09-09 22:11:56.5870,1694315516.587172,0.02056984230875969,0.0010877037420868874,0.016936184838414192,-0.7734070420265198,0.5897675156593323,0.042617857456207275,
0,2023-09-09 22:11:39.1360,02:25,10,1,2023-09-09 22:11:57.0390,1694315517.0391412,-0.003602990647777915,-0.0044352286495268345,-0.00310604483820498,0.0447845458984375,-0.0713348388671875,-0.997833251953125,111.87916564941406,-29.221969604492188,-38.72711181640625,2023-09-09 22:11:56.6870,1694315516.686908,0.02191806770861149,-0.03793612867593765,-0.009816266596317291,-0.8039247393608093,0.586349606513977,0.037719935178756714,
0,2023-09-09 22:11:39.1360,02:25,10,1,2023-09-09 22:11:57.1390,1694315517.138978,0.0005219795857556164,-0.004012584686279297,-0.003168362658470869,0.0472869873046875,-0.0698699951171875,-0.9981842041015625,111.87916564941406,-29.221969604492188,-38.72711181640625,2023-09-09 22:11:56.7870,1694315516.786705,0.012154918164014816,-0.01794377714395523,-0.035178881138563156,-0.8113252520561218,0.595108151435852,0.036773890256881714,
0,2023-09-09 22:11:39.1360,02:25,10,1,2023-09-09 22:11:57.2370,1694315517.237078,-0.0020096213556826115,-0.004202734678983688,-0.0019419770687818527,0.044708251953125,-0.068389892578125,-0.99566650390625,111.89352416992188,-29.25775146484375,-38.254150390625,2023-09-09 22:11:56.8870,1694315516.886568,0.04520434886217117,-0.0400775745511055,-0.02506040222942829,-0.8143770098686218,0.6128235459327698,0.028198454529047012,
0,2023-09-09 22:11:39.1360,02:25,10,1,2023-09-09 22:11:57.3540,1694315517.354039,-0.00341550400480628,-0.006223541218787432,-0.0026876621413975954,0.0477294921875,-0.0682220458984375,-0.99810791015625,112.00082397460938,-29.303680419921875,-37.79693603515625,2023-09-09 22:11:56.9870,1694315516.986621,0.01725773513317108,0.005358481779694557,0.007678204216063023,-0.768203854560852,0.5884247422218323,0.04016123339533806,
0,2023-09-09 22:11:39.1360,02:25,10,1,2023-09-09 22:11:57.4370,1694315517.437073,-0.0013435647124424577,-0.0048887645825743675,-0.0035268242936581373,0.04638671875,-0.068267822265625,-0.9981231689453125,112.00082397460938,-29.303680419921875,-37.79693603515625,2023-09-09 22:11:57.0860,1694315517.086437,-0.005463090259581804,0.03733838349580765,0.022362373769283295,-0.7622376680374146,0.5724945664405823,0.053375303745269775,
0,2023-09-09 22:11:39.1360,02:25,10,1,2023-09-09 22:11:57.5370,1694315517.5370579,0.00018429075134918094,-0.005720203742384911,-0.0006767092272639275,0.0441436767578125,-0.068572998046875,-0.996490478515625,111.87577819824219,-29.110946655273438,-38.50267028808594,2023-09-09 22:11:57.1860,1694315517.1861072,-0.003327234648168087,0.033059217035770416,0.01402987726032734,-0.7935944199562073,0.5475464463233948,0.06265268102288246,
0,2023-09-09 22:11:39.1360,02:25,10,1,2023-09-09 22:11:57.6390,1694315517.638823,0.0004543352697510272,-0.0031963258516043425,-0.0025268071331083775,0.0443267822265625,-0.0690460205078125,-0.99749755859375,111.81593322753906,-29.125473022460938,-38.496673583984375,2023-09-09 22:11:57.2860,1694315517.285942,0.017143817618489265,-0.01963195577263832,-0.01525257807224989,-0.8025360703468323,0.5835113525390625,0.029693741351366043,
0,2023-09-09 22:11:39.1360,02:25,10,1,2023-09-09 22:11:57.7380,1694315517.73824,-0.002389388158917427,-0.00509968725964427,-0.004207794554531574,0.0459136962890625,-0.0704803466796875,-0.99835205078125,111.92538452148438,-29.316009521484375,-38.58638000488281,2023-09-09 22:11:57.3860,1694315517.3858008,-0.008601691573858261,-0.0038869474083185196,0.020599395036697388,-0.763992428779602,0.5581207275390625,0.03298962488770485,
0,2023-09-09 22:11:39.1360,02:25,10,1,2023-09-09 22:11:57.8390,1694315517.838644,-0.0019390475936233997,-0.005841111298650503,-0.0036730316933244467,0.04656982421875,-0.069915771484375,-0.9996490478515625,111.7713623046875,-29.102691650390625,-38.79072570800781,2023-09-09 22:11:57.4860,1694315517.485662,-0.028526131063699722,0.024714335799217224,0.03976736217737198,-0.7738037705421448,0.5786133408546448,0.06520093977451324,
0,2023-09-09 22:11:39.1360,02:25,10,1,2023-09-09 22:11:57.9380,1694315517.9376879,-0.0017526262672618032,-0.005481051746755838,-0.004122573416680098,0.046661376953125,-0.0696868896484375,-0.9978179931640625,111.93704223632812,-29.060348510742188,-38.523162841796875,2023-09-09 22:11:57.5860,1694315517.585524,-0.024976735934615135,0.016266390681266785,0.03717414662241936,-0.7762757539749146,0.5811004638671875,0.06626908853650093,
0,2023-09-09 22:11:39.1360,02:25,10,1,2023-09-09 22:11:58.0370,1694315518.037368,-0.00030360036180354655,-0.006442719139158726,-0.003975300583988428,0.0466766357421875,-0.0686492919921875,-0.998748779296875,111.92021179199219,-28.823379516601562,-38.735321044921875,2023-09-09 22:11:57.6850,1694315517.685282,-0.02072932757437229,0.015981830656528473,0.00014824955724179745,-0.8219299912452698,0.5905457139015198,0.07554637640714645,
0,2023-09-09 22:11:39.1360,02:25,10,1,2023-09-09 22:11:58.1380,1694315518.138376,-0.001160072977654636,-0.004718588665127754,-0.004480502102524042,0.044189453125,-0.069366455078125,-0.99700927734375,111.88714599609375,-28.902145385742188,-38.56831359863281,2023-09-09 22:11:57.7850,1694315517.785063,0.00814899243414402,-0.03322765976190567,-0.039233408868312836,-0.8468170166015625,0.6284942626953125,0.055023305118083954,
0,2023-09-09 22:11:39.1360,02:25,10,1,2023-09-09 22:11:58.2370,1694315518.237325,-0.0013025520602241158,-0.004576376173645258,-0.0037113812286406755,0.0451202392578125,-0.068511962890625,-0.9969329833984375,111.88592529296875,-29.034591674804688,-38.126678466796875,2023-09-09 22:11:57.8850,1694315517.885027,0.00787828117609024,-0.006682068109512329,0.013837995938956738,-0.802093505859375,0.6158447265625,0.06509404256939888,
0,2023-09-09 22:11:39.1360,02:25,10,1,2023-09-09 22:11:58.3380,1694315518.3381991,0.0017150756902992725,-0.004248540848493576,-0.00546294217929244,0.046722412109375,-0.0687408447265625,-0.9958343505859375,112.07196044921875,-29.014877319335938,-38.023895263671875,2023-09-09 22:11:57.9850,1694315517.984795,0.0011322950012981892,0.002260160632431507,-0.023172652348876,-0.8019563555717468,0.616073727607727,0.06175243481993675,
0,2023-09-09 22:11:39.1360,02:25,10,1,2023-09-09 22:11:58.4390,1694315518.438618,0.0004106594424229115,-0.007425958290696144,-0.0007845672662369907,0.048126220703125,-0.0673065185546875,-0.9963226318359375,111.88369750976562,-28.9974365234375,-38.199005126953125,2023-09-09 22:11:58.0850,1694315518.084814,0.039279814809560776,0.003652994055300951,-0.0058585768565535545,-0.788559079170227,0.5697785019874573,0.07078561559319496,
0,2023-09-09 22:11:39.1360,02:25,10,1,2023-09-09 22:11:58.5380,1694315518.5382252,-0.0009153284481726587,-0.0023180153220891953,-0.00041571943438611925,0.049041748046875,-0.0682830810546875,-0.9940948486328125,111.91229248046875,-28.985275268554688,-38.23475646972656,2023-09-09 22:11:58.1850,1694315518.184542,0.08453311771154404,-0.024712467566132545,-0.02715657465159893,-0.811553955078125,0.5934448838233948,0.0356903150677681,
0,2023-09-09 22:11:39.1360,02:25,10,1,2023-09-09 22:11:58.6390,1694315518.638746,0.004811000544577837,-0.0009358347742818296,-0.000791491474956274,0.047210693359375,-0.06707763671875,-0.989898681640625,111.94769287109375,-29.043991088867188,-38.29530334472656,2023-09-09 22:11:58.2840,1694315518.284383,-0.0004888377152383327,-0.019885223358869553,0.010771232657134533,-0.8155519366264343,0.614608883857727,0.037262026220560074,
0,2023-09-09 22:11:39.1360,02:25,10,1,2023-09-09 22:11:58.7370,1694315518.737206,0.004811000544577837,-0.0009358347742818296,-0.000791491474956274,0.0442657470703125,-0.0686187744140625,-0.99456787109375,111.85330200195312,-28.866943359375,-38.02317810058594,2023-09-09 22:11:58.3840,1694315518.384229,0.0047745006158947945,-0.009147357195615768,-0.0031323987059295177,-0.8140105605125427,0.6085052490234375,0.05455031991004944,
0,2023-09-09 22:11:39.1360,02:25,10,1,2023-09-09 22:11:58.8390,1694315518.838789,-0.005075186025351286,-0.0046448190696537495,-0.0041731735691428185,0.0442047119140625,-0.0682830810546875,-0.99462890625,111.83589172363281,-28.912368774414062,-38.617401123046875,2023-09-09 22:11:58.4840,1694315518.484257,-0.005763161927461624,0.009185178205370903,0.010836447589099407,-0.80230712890625,0.6031951308250427,0.030014142394065857,
0,2023-09-09 22:11:39.1360,02:25,10,1,2023-09-09 22:11:58.9390,1694315518.9388518,-0.0013262542197480798,-0.005346562247723341,-0.0010335728293284774,0.0438232421875,-0.069366455078125,-0.996246337890625,111.85403442382812,-28.971847534179688,-38.57243347167969,2023-09-09 22:11:58.5840,1694315518.5839438,-0.0021109692752361298,-0.013815612532198429,0.01665295846760273,-0.7860717177391052,0.5954283475875854,0.050659287720918655,
0,2023-09-09 22:11:39.1360,02:25,10,1,2023-09-09 22:11:59.0390,1694315519.038756,-0.000972852751147002,-0.005163336638361216,-0.00239231763407588,0.044525146484375,-0.0693206787109375,-0.9986419677734375,111.86927795410156,-29.076461791992188,-38.211151123046875,2023-09-09 22:11:58.6840,1694315518.683648,-0.009038050659000874,0.009781726635992527,0.010224186815321445,-0.8018036484718323,0.5962371826171875,0.08973708003759384,
0,2023-09-09 22:11:39.1360,02:25,10,1,2023-09-09 22:11:59.1390,1694315519.138966,-0.004601143300533295,-0.0044200485572218895,-0.005376921966671944,0.043731689453125,-0.0695953369140625,-0.9999542236328125,112.08163452148438,-29.097091674804688,-38.59721374511719,2023-09-09 22:11:58.7840,1694315518.7836409,-0.0048501635901629925,-0.011929827742278576,0.002408973639830947,-0.7912445664405823,0.577239990234375,0.08123792335391045,
0,2023-09-09 22:11:39.1360,02:25,10,1,2023-09-09 22:11:59.2400,1694315519.239862,-0.006954312324523926,-0.0038658445701003075,-0.007056578062474728,0.044403076171875,-0.0703582763671875,-0.997528076171875,111.91534423828125,-29.056350708007812,-38.46687316894531,2023-09-09 22:11:58.8830,1694315518.883432,-0.004794237203896046,0.013896442949771881,-0.022468412294983864,-0.7994385957717896,0.5817108750343323,0.06790169700980186,
0,2023-09-09 22:11:39.1360,02:25,10,1,2023-09-09 22:11:59.3370,1694315519.337373,-0.0030839405953884125,-0.0018807243322953582,-0.004524444229900837,0.0468597412109375,-0.0696868896484375,-0.9987640380859375,111.8917236328125,-29.110549926757812,-38.594635009765625,2023-09-09 22:11:58.9830,1694315518.983257,0.015018283389508724,0.004321180284023285,0.0016153850592672825,-0.8196260929107666,0.592300534248352,0.07099926471710205,
0,2023-09-09 22:11:39.1360,02:25,10,1,2023-09-09 22:11:59.4370,1694315519.43713,-0.004021905828267336,-0.004820055328309536,-0.005258411634713411,0.0481109619140625,-0.067535400390625,-0.99786376953125,111.86274719238281,-28.83349609375,-38.636566162109375,2023-09-09 22:11:59.0830,1694315519.083271,-0.020985057577490807,-0.005679922178387642,0.0011596183758229017,-0.7882537841796875,0.5938720703125,0.06181339547038078,
0,2023-09-09 22:11:39.1360,02:25,10,1,2023-09-09 22:11:59.5370,1694315519.537139,0.0021406488958746195,-0.0031198931392282248,-0.004205131437629461,0.0511474609375,-0.0723724365234375,-1.005157470703125,111.99320983886719,-29.13092041015625,-38.380035400390625,2023-09-09 22:11:59.1830,1694315519.1830049,0.03490710258483887,-0.030827883630990982,-0.03636172413825989,-0.8298187851905823,0.5909882187843323,0.06581127271056175,
0,2023-09-09 22:11:39.1360,02:25,10,1,2023-09-09 22:11:59.6390,1694315519.638572,-0.007218231912702322,-0.0032447953708469868,-0.005322327371686697,0.0487213134765625,-0.071197509765625,-1.0024566650390625,111.97860717773438,-28.868545532226562,-38.63609313964844,2023-09-09 22:11:59.2830,1694315519.282669,0.0042240251787006855,-0.0012694606557488441,0.015586561523377895,-0.7937317490577698,0.5923004746437073,0.05130022391676903,
0,2023-09-09 22:11:39.1360,02:25,10,1,2023-09-09 22:11:59.7390,1694315519.738812,-0.002374740783125162,-0.0015472965314984322,-0.005437375977635384,0.04559326171875,-0.0667877197265625,-0.9968719482421875,111.9896240234375,-28.970550537109375,-38.430938720703125,2023-09-09 22:11:59.3830,1694315519.382729,0.008245931006968021,-0.021752364933490753,0.03644057735800743,-0.7861940264701843,0.5952454805374146,0.04011543467640877,
0,2023-09-09 22:11:39.1360,02:25,10,1,2023-09-09 22:11:59.8390,1694315519.838972,-0.005678125657141209,-0.0032139027025550604,-0.0038567897863686085,0.043487548828125,-0.06658935546875,-0.9889373779296875,111.86677551269531,-28.843902587890625,-38.1529541015625,2023-09-09 22:11:59.4820,1694315519.482266,-0.0063839443027973175,0.016722191125154495,0.004343926906585693,-0.7900543808937073,0.6180877685546875,0.05796824023127556,
0,2023-09-09 22:11:39.1360,02:25,10,1,2023-09-09 22:11:59.9380,1694315519.9377542,0.005494633689522743,-0.0051843756809830666,-0.0017441042000427842,0.045166015625,-0.06805419921875,-0.99688720703125,111.97715759277344,-28.81512451171875,-38.25199890136719,2023-09-09 22:11:59.5820,1694315519.582305,0.0036166911013424397,0.010078801773488522,0.010609311982989311,-0.8110809922218323,0.589935302734375,0.07336434349417686,
0,2023-09-09 22:11:39.1360,02:25,10,1,2023-09-09 22:12:00.0370,1694315520.036782,-9.560748003423214e-05,-0.005623797420412302,-0.0028490496333688498,0.051025390625,-0.0670928955078125,-0.997528076171875,111.87332153320312,-29.013671875,-38.20985412597656,2023-09-09 22:11:59.6820,1694315519.682194,0.012298863381147385,0.0017953054048120975,-0.02015392668545246,-0.8234711289405823,0.6042327880859375,0.06352254003286362,
0,2023-09-09 22:11:39.1360,02:25,10,1,2023-09-09 22:12:00.1390,1694315520.1385632,-0.0010985539993271232,-0.004027764778584242,-0.0026461167726665735,0.0480804443359375,-0.06524658203125,-0.998046875,112.03118896484375,-28.780563354492188,-38.55192565917969,2023-09-09 22:11:59.7820,1694315519.781979,0.009375311434268951,-0.009663611650466919,-0.01922624744474888,-0.8198547959327698,0.5972899794578552,0.06480422988533974,
0,2023-09-09 22:11:39.1360,02:25,10,1,2023-09-09 22:12:00.2390,1694315520.238875,-0.002429601736366749,-0.0036727653350681067,-0.002767557045444846,0.043853759765625,-0.0678253173828125,-0.9956207275390625,112.06954956054688,-28.963394165039062,-37.885009765625,2023-09-09 22:11:59.8820,1694315519.881836,0.010783457197248936,-0.005991910584270954,-0.0036217879969626665,-0.8016663789749146,0.603256344795227,0.036453451961278915,
0,2023-09-09 22:11:39.1360,02:25,10,1,2023-09-09 22:12:00.3390,1694315520.3387852,0.0004386226355563849,-0.0036975329276174307,-0.0017275925492867827,0.0443572998046875,-0.068267822265625,-0.9983062744140625,111.78816223144531,-28.926971435546875,-38.69322204589844,2023-09-09 22:11:59.9830,1694315519.98318,0.013303473591804504,-0.007712844759225845,-0.011883645318448544,-0.8115235567092896,0.6214599609375,0.02874760329723358,
0,2023-09-09 22:11:39.1360,02:25,10,1,2023-09-09 22:12:00.4390,1694315520.438828,-0.006055229343473911,-0.0068057081662118435,-0.0031364047899842262,0.043670654296875,-0.0670928955078125,-0.9971771240234375,111.95223999023438,-29.0238037109375,-38.243316650390625,2023-09-09 22:12:00.0820,1694315520.081615,-0.010141665115952492,-0.009500890970230103,-0.004744243808090687,-0.7829590439796448,0.6025390625,0.050170935690402985,
0,2023-09-09 22:11:39.1360,02:25,10,1,2023-09-09 22:12:00.5390,1694315520.5386338,-0.0004546015989035368,-0.0011076086666435003,-0.0032754219137132168,0.0440673828125,-0.0670928955078125,-0.9983062744140625,112.08837890625,-28.826278686523438,-38.700531005859375,2023-09-09 22:12:00.1810,1694315520.1814408,-0.009475008584558964,-0.0024801334366202354,0.006131140515208244,-0.7769775390625,0.5719605088233948,0.06764227524399757,
0,2023-09-09 22:11:39.1360,02:25,10,1,2023-09-09 22:12:00.6380,1694315520.637731,0.00032650353386998177,-0.003975833300501108,-0.0017097494564950466,0.04107666015625,-0.0662689208984375,-0.9951629638671875,111.92779541015625,-28.699356079101562,-38.65010070800781,2023-09-09 22:12:00.2810,1694315520.281248,-0.01911511830985546,-0.009571864269673824,0.0231693796813488,-0.772842526435852,0.5718384385108948,0.050506725907325745,
0,2023-09-09 22:11:39.1360,02:25,10,1,2023-09-09 22:12:00.7380,1694315520.73765,0.0008333030855283141,-0.0035302862524986267,0.0014721954939886928,0.0437774658203125,-0.0684814453125,-0.9965972900390625,112.08659362792969,-29.037368774414062,-38.633575439453125,2023-09-09 22:12:00.3810,1694315520.3810148,0.0076994504779577255,-0.01411708164960146,0.008860215544700623,-0.7974548935890198,0.5865631103515625,0.04331974685192108,
0,2023-09-09 22:11:39.1360,02:25,10,1,2023-09-09 22:12:00.8380,1694315520.838232,0.0014745922526344657,-0.003148389048874378,-0.0026080335956066847,0.0471649169921875,-0.068023681640625,-0.9975128173828125,111.87184143066406,-28.920089721679688,-38.470550537109375,2023-09-09 22:12:00.4810,1694315520.48086,0.0006540578324347734,-0.01740102469921112,0.01962045207619667,-0.7889405488967896,0.6168365478515625,0.05247512832283974,
0,2023-09-09 22:11:39.1360,02:25,10,1,2023-09-09 22:12:00.9390,1694315520.938709,0.0006815029191784561,-0.005872003734111786,-0.002326537622138858,0.0445098876953125,-0.068939208984375,-0.997650146484375,111.83148193359375,-28.806365966796875,-38.506103515625,2023-09-09 22:12:00.5810,1694315520.580836,-0.0012321262620389462,-0.015745073556900024,0.03784985467791557,-0.7888032793998718,0.6119385957717896,0.05752579867839813,
0,2023-09-09 22:11:39.1360,02:25,10,1,2023-09-09 22:12:01.0390,1694315521.03863,-0.0014764565275982022,-0.0028937908355146646,-0.0011590076610445976,0.0463714599609375,-0.0666351318359375,-0.9967193603515625,111.91525268554688,-28.8333740234375,-38.60621643066406,2023-09-09 22:12:00.6810,1694315520.680547,-0.004438905045390129,-0.010551508516073227,0.029892630875110626,-0.8012543320655823,0.6198578476905823,0.07073978334665298,
0,2023-09-09 22:11:39.1360,02:25,10,1,2023-09-09 22:12:01.1380,1694315521.137817,-0.0022210762836039066,-0.005519401282072067,-0.004502073861658573,0.046173095703125,-0.0681915283203125,-0.9982452392578125,111.9180908203125,-28.749298095703125,-38.71415710449219,2023-09-09 22:12:00.7800,1694315520.780374,-0.021279871463775635,0.011076954193413258,0.008063197135925293,-0.7847749590873718,0.613906979560852,0.06442278996109962,
0,2023-09-09 22:11:39.1360,02:25,10,1,2023-09-09 22:12:01.2390,1694315521.238513,-0.0023366576060652733,-0.004589425399899483,-0.0046208505518734455,0.0478973388671875,-0.066864013671875,-0.994964599609375,111.71826171875,-28.718353271484375,-38.272247314453125,2023-09-09 22:12:00.8800,1694315520.880258,0.004148591309785843,-0.0056691356003284454,0.01154005341231823,-0.7927857041358948,0.5778656005859375,0.07455462962388992,
0,2023-09-09 22:11:39.1360,02:25,10,1,2023-09-09 22:12:01.3390,1694315521.338636,-0.002034921431913972,-0.0055063520558178425,-0.0030506509356200695,0.048370361328125,-0.0647125244140625,-0.9934234619140625,111.84651184082031,-28.7957763671875,-38.27351379394531,2023-09-09 22:12:00.9800,1694315520.9800658,0.0021800489630550146,-0.016603142023086548,0.0029199011623859406,-0.801468014717102,0.5904999375343323,0.06365974992513657,
0,2023-09-09 22:11:39.1360,02:25,10,1,2023-09-09 22:12:01.4390,1694315521.438778,-0.0007499461644329131,-0.004721518140286207,-0.004306863993406296,0.0453338623046875,-0.0622406005859375,-0.99615478515625,111.77876281738281,-28.816513061523438,-38.33003234863281,2023-09-09 22:12:01.0800,1694315521.080168,-0.01010051928460598,0.011736486107110977,0.021714061498641968,-0.7808533906936646,0.5778198838233948,0.061996497213840485,
0,2023-09-09 22:11:39.1360,02:25,10,1,2023-09-09 22:12:01.5390,1694315521.5385761,0.0016953683225437999,-0.00199337606318295,-0.004387291613966227,0.0482635498046875,-0.0681610107421875,-0.9937286376953125,111.77577209472656,-28.949630737304688,-38.381866455078125,2023-09-09 22:12:01.1800,1694315521.179754,0.004061638843268156,-0.008967194706201553,0.00395983224734664,-0.7995452284812927,0.61346435546875,0.052383579313755035,
0,2023-09-09 22:11:39.1360,02:25,10,1,2023-09-09 22:12:01.6380,1694315521.63794,-0.0009779128013178706,-0.004844556096941233,-0.00512844929471612,0.0502471923828125,-0.064544677734375,-0.99835205078125,111.90916442871094,-28.994247436523438,-38.19989013671875,2023-09-09 22:12:01.2790,1694315521.279408,0.0052798353135585785,-0.028012126684188843,-0.00665263133123517,-0.8064727783203125,0.63214111328125,0.060302771627902985,
0,2023-09-09 22:11:39.1360,02:25,10,1,2023-09-09 22:12:01.7400,1694315521.739564,-0.0013771206140518188,-0.0012950951931998134,-0.004653075244277716,0.042633056640625,-0.0700836181640625,-0.9973907470703125,111.92124938964844,-28.950088500976562,-38.129791259765625,2023-09-09 22:12:01.3800,1694315521.379549,-0.008172457106411457,0.00254684966057539,0.006389334332197905,-0.802810788154602,0.6105194687843323,0.06730671972036362,
0,2023-09-09 22:11:39.1360,02:25,10,1,2023-09-09 22:12:01.8390,1694315521.838546,-0.0033933997619897127,-0.0049287122674286366,-0.004601143300533295,0.050018310546875,-0.0671234130859375,-0.998809814453125,111.96800231933594,-28.775390625,-38.57905578613281,2023-09-09 22:12:01.4790,1694315521.4792938,0.0019249181495979428,-0.015971973538398743,0.008269259706139565,-0.8081666231155396,0.59735107421875,0.06344614923000336,
0,2023-09-09 22:11:39.1360,02:25,10,1,2023-09-09 22:12:01.9390,1694315521.939021,-0.002002164488658309,-0.006315952632576227,-0.0036519928835332394,0.04876708984375,-0.06658935546875,-0.9962005615234375,111.92146301269531,-29.103439331054688,-38.63117980957031,2023-09-09 22:12:01.5790,1694315521.579124,-0.017205966636538506,0.013870211318135262,0.01316844392567873,-0.784820556640625,0.5961455702781677,0.05792246013879776,
0,2023-09-09 22:11:39.1360,02:25,10,1,2023-09-09 22:12:02.0390,1694315522.038522,-0.0009153284481726587,-0.0036551884841173887,-0.0035033884923905134,0.0445098876953125,-0.066192626953125,-0.9954833984375,112.02140808105469,-29.206024169921875,-38.33836364746094,2023-09-09 22:12:01.6790,1694315521.6789432,0.010772205889225006,-0.0240248404443264,0.017152633517980576,-0.7953340411186218,0.6251221895217896,0.05571001023054123,
0,2023-09-09 22:11:39.1360,02:25,10,1,2023-09-09 22:12:02.1390,1694315522.138589,-0.0008380967774428427,-0.00415319949388504,-0.0020658141002058983,0.0462493896484375,-0.0675201416015625,-0.9949951171875,111.90066528320312,-28.966949462890625,-38.53662109375,2023-09-09 22:12:01.7790,1694315521.77878,-0.014176353812217712,0.01782367378473282,-0.012840253300964832,-0.8015442490577698,0.6421356797218323,0.05554208159446716,
0,2023-09-09 22:11:39.1360,02:25,10,1,2023-09-09 22:12:02.2390,1694315522.2389178,0.000391218374716118,-0.004192614462226629,-0.00467651104554534,0.0493011474609375,-0.0664825439453125,-0.99481201171875,111.98553466796875,-29.027908325195312,-38.406097412109375,2023-09-09 22:12:01.8790,1694315521.878602,-0.0064882077276706696,-0.02140708640217781,0.006157872267067432,-0.8077545762062073,0.6293030381202698,0.06983961910009384,
0,2023-09-09 22:11:39.1360,02:25,10,1,2023-09-09 22:12:02.3370,1694315522.337201,0.0002234392159152776,-0.003826163476333022,-0.005268797744065523,0.0476226806640625,-0.0680084228515625,-0.994903564453125,112.02383422851562,-28.728469848632812,-38.51576232910156,2023-09-09 22:12:01.9780,1694315521.978435,-0.02695479989051819,-0.015128283761441708,0.033082928508520126,-0.765823483467102,0.5890656113624573,0.08256539702415466,
0,2023-09-09 22:11:39.1360,02:25,10,1,2023-09-09 22:12:02.4390,1694315522.438653,-0.00021784658019896597,-0.004435494542121887,-0.0024282701779156923,0.0472259521484375,-0.067230224609375,-0.9959564208984375,111.93643188476562,-28.8834228515625,-38.68756103515625,2023-09-09 22:12:02.0780,1694315522.078357,-0.02353636734187603,0.032453082501888275,0.02306305430829525,-0.7763213515281677,0.5894775390625,0.09840410202741623,
0,2023-09-09 22:11:39.1360,02:25,10,1,2023-09-09 22:12:02.5390,1694315522.538513,0.001333178486675024,-0.005071723833680153,-0.0035657063126564026,0.0461883544921875,-0.0673980712890625,-0.9972076416015625,112.00877380371094,-28.913726806640625,-38.70086669921875,2023-09-09 22:12:02.1780,1694315522.178278,-0.025371883064508438,0.009853631258010864,0.009470445103943348,-0.806320309638977,0.599411129951477,0.07739268988370895,
0,2023-09-09 22:11:39.1360,02:25,10,1,2023-09-09 22:12:02.6380,1694315522.637547,-0.004057059530168772,-0.0026439863722771406,-0.004375840071588755,0.0482330322265625,-0.0667877197265625,-0.9973907470703125,111.859375,-28.893875122070312,-38.708038330078125,2023-09-09 22:12:02.2780,1694315522.2781038,-0.0007241945713758469,0.0094949034973979,-0.012922544963657856,-0.7865753173828125,0.6157989501953125,0.060745351016521454,
0,2023-09-09 22:11:39.1360,02:25,10,1,2023-09-09 22:12:02.7390,1694315522.738628,-0.0012562130577862263,-0.0037441381718963385,-0.002883670851588249,0.047088623046875,-0.066009521484375,-0.995361328125,111.88340759277344,-28.618896484375,-38.50828552246094,2023-09-09 22:12:02.3780,1694315522.377822,0.003586198203265667,-0.01860131323337555,-0.017338499426841736,-0.8079225420951843,0.6346130967140198,0.07328806817531586,
0,2023-09-09 22:11:39.1360,02:25,10,1,2023-09-09 22:12:02.8390,1694315522.8392649,0.0007789746159687638,-0.004116448108106852,-0.0016767261549830437,0.04791259765625,-0.0674285888671875,-0.9971923828125,111.78529357910156,-28.480804443359375,-38.354888916015625,2023-09-09 22:12:02.4780,1694315522.477656,-0.005550508387386799,-0.004145274870097637,-0.024295508861541748,-0.7919158935546875,0.5988617539405823,0.07215902954339981,
0,2023-09-09 22:11:39.1360,02:25,10,1,2023-09-09 22:12:02.9380,1694315522.938487,-0.0010375675046816468,-0.003132410114631057,-0.0020836573094129562,0.044677734375,-0.0686798095703125,-0.9960174560546875,111.8876953125,-28.778884887695312,-38.22322082519531,2023-09-09 22:12:02.5780,1694315522.577569,0.00697413831949234,0.003526626620441675,-0.03968541696667671,-0.8126222491264343,0.6178284883499146,0.05535907298326492,
0,2023-09-09 22:11:39.1360,02:25,10,1,2023-09-09 22:12:03.0390,1694315523.038667,-0.00023142869758885354,-0.005861351266503334,-0.0002996056282427162,0.044281005859375,-0.068756103515625,-0.9973602294921875,111.8072509765625,-28.795822143554688,-38.38386535644531,2023-09-09 22:12:02.6770,1694315522.677418,-0.005954510532319546,0.0019261999987065792,0.012710180133581161,-0.775314450263977,0.5933075547218323,0.08123790472745895,
0,2023-09-09 22:11:39.1360,02:25,10,1,2023-09-09 22:12:03.1380,1694315523.138459,-0.0007904262165538967,-0.0021675468888133764,-0.0028277444653213024,0.0472412109375,-0.069061279296875,-0.9987335205078125,111.83705139160156,-28.690200805664062,-38.605438232421875,2023-09-09 22:12:02.7770,1694315522.7772532,-0.021213823929429054,-0.004117444157600403,-0.015106703154742718,-0.8160858154296875,0.6403350830078125,0.08990491181612015,
0,2023-09-09 22:11:39.1360,02:25,10,1,2023-09-09 22:12:03.2390,1694315523.238863,-0.0009587379754520953,-0.0025443839840590954,-0.0002687129599507898,0.0435028076171875,-0.069610595703125,-0.9979095458984375,112.04032897949219,-28.843276977539062,-37.83283996582031,2023-09-09 22:12:02.8770,1694315522.877038,0.0038756837602704763,0.011017566546797752,-0.03161543980240822,-0.814376950263977,0.6148681640625,0.06420908868312836,
0,2023-09-09 22:11:39.1360,02:25,10,1,2023-09-09 22:12:03.3380,1694315523.337651,-0.0024074974935501814,-0.004720186814665794,-0.004702077247202396,0.0450897216796875,-0.0683441162109375,-1.0012664794921875,111.8631591796875,-28.843353271484375,-38.217559814453125,2023-09-09 22:12:02.9770,1694315522.9767509,-0.024360548704862595,0.02818656526505947,0.017092213034629822,-0.7757417559623718,0.5764161348342896,0.06700149178504944,
0,2023-09-09 22:11:39.1360,02:25,10,1,2023-09-09 22:12:03.4390,1694315523.438807,0.0003510046226438135,-0.0036796897184103727,-0.0022058964241296053,0.0468597412109375,-0.0643157958984375,-0.9962310791015625,111.86219787597656,-28.606338500976562,-38.25856018066406,2023-09-09 22:12:03.0770,1694315523.076912,-0.008622730150818825,-0.00972353108227253,-0.0008281318587251008,-0.8031157851219177,0.6259613037109375,0.07849124819040298,
0,2023-09-09 22:11:39.1360,02:25,10,1,2023-09-09 22:12:03.5390,1694315523.53895,-0.0019113506423309445,-0.004898884799331427,-0.0010724549647420645,0.0439910888671875,-0.0648345947265625,-0.9927215576171875,112.1048583984375,-28.808319091796875,-38.38713073730469,2023-09-09 22:12:03.1770,1694315523.176552,-0.05835333466529846,0.011250859126448631,0.0004353050026111305,-0.7594146132469177,0.6452484130859375,0.09521502256393433,
0,2023-09-09 22:11:39.1360,02:25,10,1,2023-09-09 22:12:03.6380,1694315523.638196,-0.001915878034196794,-0.003625627374276519,-0.002231995342299342,0.0445098876953125,-0.065093994140625,-0.9927978515625,111.78486633300781,-28.804718017578125,-38.867401123046875,2023-09-09 22:12:03.2760,1694315523.276469,-0.014753727242350578,-0.02326464094221592,-0.009296917356550694,-0.7931060791015625,0.633392333984375,0.10281388461589813,
0,2023-09-09 22:11:39.1360,02:25,10,1,2023-09-09 22:12:03.7390,1694315523.738857,-0.0008364989189431071,-0.004985703621059656,-0.0012796488590538502,0.0485382080078125,-0.06463623046875,-0.9951629638671875,111.79727172851562,-28.619552612304688,-38.928863525390625,2023-09-09 22:12:03.3760,1694315523.376227,-0.016910888254642487,0.012814533896744251,-0.010368307121098042,-0.8023833632469177,0.6014708876609802,0.09799211472272873,
0,2023-09-09 22:11:39.1360,02:25,10,1,2023-09-09 22:12:03.8380,1694315523.838478,-0.0003374225052539259,-0.001955026527866721,-0.004731105640530586,0.0476837158203125,-0.064910888671875,-0.9926910400390625,111.80596923828125,-28.844223022460938,-38.354248046875,2023-09-09 22:12:03.4760,1694315523.476099,0.017173713073134422,-0.019318634644150734,-0.01976773329079151,-0.7980194687843323,0.6147308945655823,0.06633006781339645,
0,2023-09-09 22:11:39.1360,02:25,10,1,2023-09-09 22:12:03.9380,1694315523.937854,9.827064059209079e-05,-0.0043891556560993195,-0.003288205014541745,0.0491180419921875,-0.0642242431640625,-0.9934234619140625,111.79576110839844,-28.783843994140625,-38.595703125,2023-09-09 22:12:03.5760,1694315523.575917,0.04079502075910568,-0.014993662014603615,-0.031086500734090805,-0.8238525986671448,0.6292114853858948,0.07574483752250671,
0,2023-09-09 22:11:39.1360,02:25,10,1,2023-09-09 22:12:04.0380,1694315524.038337,-0.00019760655413847417,-0.005506617948412895,-0.002600576728582382,0.0493927001953125,-0.064178466796875,-0.9938201904296875,111.91415405273438,-28.987869262695312,-38.66845703125,2023-09-09 22:12:03.6760,1694315523.675869,0.024150528013706207,-0.030983546748757362,0.0160949919372797,-0.7344362139701843,0.5933380722999573,0.07196059077978134,
0,2023-09-09 22:11:39.1360,02:25,10,1,2023-09-09 22:12:04.1390,1694315524.1385489,-0.006208627484738827,-0.00566907087340951,-0.0025747441686689854,0.04913330078125,-0.0622711181640625,-0.993988037109375,111.6298828125,-28.367111206054688,-38.83984375,2023-09-09 22:12:03.7750,1694315523.775475,-0.029304038733243942,-0.005050749517977238,0.009522509761154652,-0.7937164306640625,0.6284027099609375,0.09367384761571884,
0,2023-09-09 22:11:39.1360,02:25,10,1,2023-09-09 22:12:04.2390,1694315524.239204,-0.0010705908061936498,-0.003923901356756687,-0.0029028456192463636,0.047454833984375,-0.0635986328125,-0.992828369140625,111.89682006835938,-28.85693359375,-38.633026123046875,2023-09-09 22:12:03.8760,1694315523.875578,-0.02895876206457615,0.010865366086363792,-0.00528846075758338,-0.7858125567436218,0.5989533066749573,0.08767710626125336,
0,2023-09-09 22:11:39.1360,02:25,10,1,2023-09-09 22:12:04.3380,1694315524.337703,-0.0024703482631593943,-0.004701810888946056,-0.0007193197961896658,0.0474700927734375,-0.0647735595703125,-0.994537353515625,111.78675842285156,-28.718978881835938,-38.43011474609375,2023-09-09 22:12:03.9750,1694315523.975337,-0.027490494772791862,0.03368745744228363,0.018745603039860725,-0.7752991318702698,0.5830231308937073,0.09263629466295242,
0,2023-09-09 22:11:39.1360,02:25,10,1,2023-09-09 22:12:04.4390,1694315524.438501,-0.003082609036937356,-0.005566006526350975,-0.00552392890676856,0.0471649169921875,-0.0641632080078125,-0.9959564208984375,111.81011962890625,-28.696884155273438,-38.372772216796875,2023-09-09 22:12:04.0750,1694315524.075241,-0.010407848283648491,0.0024588322266936302,0.02758779749274254,-0.7697297930717468,0.5956727266311646,0.08123791962862015,
0,2023-09-09 22:11:39.1360,02:25,10,1,2023-09-09 22:12:04.5380,1694315524.538388,-0.0037875475827604532,-0.00546240946277976,-0.0062392535619437695,0.04473876953125,-0.065887451171875,-0.9969635009765625,111.76702880859375,-28.668670654296875,-38.53950500488281,2023-09-09 22:12:04.1750,1694315524.1751041,0.0005402077222242951,-0.00038875266909599304,0.012455016374588013,-0.7858276963233948,0.6285400986671448,0.06677253544330597,
0,2023-09-09 22:11:39.1360,02:25,10,1,2023-09-09 22:12:04.6390,1694315524.638834,-0.0057532270438969135,-0.004893824923783541,-0.0017044231062754989,0.0425262451171875,-0.068450927734375,-0.9980926513671875,111.87507629394531,-28.699661254882812,-38.08851623535156,2023-09-09 22:12:04.2750,1694315524.274952,-0.021125739440321922,0.05104900524020195,0.016736747696995735,-0.7778016328811646,0.61004638671875,0.08068862557411194,
0,2023-09-09 22:11:39.1360,02:25,10,1,2023-09-09 22:12:04.7380,1694315524.7383962,-0.003948668949306011,0.00012357067316770554,-0.0030900659039616585,0.0444488525390625,-0.067413330078125,-0.9964141845703125,111.81466674804688,-28.826431274414062,-38.47746276855469,2023-09-09 22:12:04.3750,1694315524.374852,-0.011967727914452553,-0.011275487951934338,0.00691557489335537,-0.7779541611671448,0.6270752549171448,0.08627334237098694,
0,2023-09-09 22:11:39.1360,02:25,10,1,2023-09-09 22:12:04.8380,1694315524.837731,-0.00031638352083973587,-0.0015675366157665849,0.0012247877893969417,0.0444488525390625,-0.067413330078125,-0.9964141845703125,112.01620483398438,-28.658782958984375,-38.348602294921875,2023-09-09 22:12:04.4740,1694315524.474403,-0.012984522618353367,-0.027465641498565674,0.007572843227535486,-0.7901306748390198,0.6066131591796875,0.09857187420129776,
0,2023-09-09 22:11:39.1360,02:25,10,1,2023-09-09 22:12:04.9380,1694315524.9382272,0.0038181741256266832,-0.0013526194961741567,-0.0019036275334656239,0.045257568359375,-0.067840576171875,-0.99517822265625,111.97750854492188,-28.818405151367188,-38.78094482421875,2023-09-09 22:12:04.5740,1694315524.5742779,-0.02104291506111622,0.004615193698555231,0.02375231310725212,-0.7807464599609375,0.5817718505859375,0.10684221237897873,
0,2023-09-09 22:11:39.1360,02:25,10,1,2023-09-09 22:12:05.0370,1694315525.037332,-0.0025009745731949806,-0.005021390039473772,-0.003349990351125598,0.0460662841796875,-0.067413330078125,-0.995269775390625,111.75433349609375,-28.64129638671875,-38.58525085449219,2023-09-09 22:12:04.6740,1694315524.674248,0.032045867294073105,-0.031428296118974686,0.00984701607376337,-0.8278962969779968,0.629867672920227,0.07499707490205765,
0,2023-09-09 22:11:39.1360,02:25,10,1,2023-09-09 22:12:05.1380,1694315525.138276,-0.0021872541401535273,-0.003866909770295024,-0.002316950121894479,0.04718017578125,-0.0670318603515625,-0.9960784912109375,111.87553405761719,-28.528961181640625,-38.64530944824219,2023-09-09 22:12:04.7740,1694315524.7741442,0.042200103402137756,-0.01556277833878994,-0.0020675002597272396,-0.7832031846046448,0.6253204941749573,0.05615248531103134,
0,2023-09-09 22:11:39.1360,02:25,10,1,2023-09-09 22:12:05.2380,1694315525.2380772,-0.005229915492236614,-0.0021172130946069956,-0.0051622712053358555,0.045562744140625,-0.065948486328125,-0.995269775390625,112.01177978515625,-28.683273315429688,-38.74481201171875,2023-09-09 22:12:04.8740,1694315524.8738909,0.010981196537613869,-0.032773457467556,0.03184918686747551,-0.7693941593170166,0.6109315156936646,0.06877148151397705,
0,2023-09-09 22:11:39.1360,02:25,10,1,2023-09-09 22:12:05.3390,1694315525.33864,-0.0024373249616473913,-0.006107160821557045,-0.0020157466642558575,0.04681396484375,-0.0670928955078125,-0.996795654296875,111.77079772949219,-28.622543334960938,-38.67021179199219,2023-09-09 22:12:04.9740,1694315524.973706,0.004015299957245588,-0.030158765614032745,0.01809016615152359,-0.7748718857765198,0.6278534531593323,0.09745801240205765,
0,2023-09-09 22:11:39.1360,02:25,10,1,2023-09-09 22:12:05.4390,1694315525.439059,-0.0033784860279411077,-0.008688828907907009,-0.0024437166284769773,0.048675537109375,-0.066680908203125,-0.99847412109375,111.89808654785156,-28.700653076171875,-38.62506103515625,2023-09-09 22:12:05.0740,1694315525.073703,-0.030789019539952278,-0.0027511101216077805,0.02605661191046238,-0.7800446152687073,0.6336212158203125,0.10377508401870728,
0,2023-09-09 22:11:39.1360,02:25,10,1,2023-09-09 22:12:05.5390,1694315525.538501,-0.0020501012913882732,-0.003406715579330921,-0.0018463695887476206,0.04962158203125,-0.067047119140625,-0.9969482421875,111.86825561523438,-28.645675659179688,-38.6044921875,2023-09-09 22:12:05.1730,1694315525.173475,-0.0014021024107933044,-0.010419948026537895,0.01549504790455103,-0.7717283964157104,0.6061858534812927,0.11071788519620895,
0,2023-09-09 22:11:39.1360,02:25,10,1,2023-09-09 22:12:05.6390,1694315525.639364,-0.002585130510851741,-0.006509564816951752,-0.003424292430281639,0.0472869873046875,-0.066436767578125,-0.995758056640625,111.68276977539062,-28.687301635742188,-38.80926513671875,2023-09-09 22:12:05.2730,1694315525.273116,-0.015053333714604378,0.003555788192898035,0.0019139254000037909,-0.792266845703125,0.624786376953125,0.10122693330049515,
0,2023-09-09 22:11:39.1360,02:25,10,1,2023-09-09 22:12:05.7380,1694315525.737955,-0.0007046724203974009,-0.003838147735223174,-0.0021113541442900896,0.0493011474609375,-0.0655670166015625,-0.9936676025390625,111.70596313476562,-28.658706665039062,-38.609130859375,2023-09-09 22:12:05.3730,1694315525.373073,0.003501509316265583,0.01732712611556053,-0.009578713215887547,-0.8025056719779968,0.6031036972999573,0.10440078377723694,
0,2023-09-09 22:11:39.1360,02:25,10,1,2023-09-09 22:12:05.8380,1694315525.838311,-0.0027060380671173334,-0.003114566905423999,-0.002123604528605938,0.0489654541015625,-0.0659332275390625,-0.9946746826171875,111.82926940917969,-28.563186645507812,-38.79022216796875,2023-09-09 22:12:05.4730,1694315525.473009,0.007196113001555204,0.016224578022956848,-0.006319935899227858,-0.7645111083984375,0.618438720703125,0.09120191633701324,
0,2023-09-09 22:11:39.1360,02:25,10,1,2023-09-09 22:12:05.9380,1694315525.938262,-0.0025808694772422314,-0.004093278665095568,-0.0029198897536844015,0.0493927001953125,-0.0634918212890625,-0.9940185546875,111.77244567871094,-28.565078735351562,-38.23576354980469,2023-09-09 22:12:05.5730,1694315525.572775,0.00014372938312590122,-0.017322862520813942,-0.011516262777149677,-0.7665405869483948,0.6260223984718323,0.09025584161281586,
0,2023-09-09 22:11:39.1360,02:25,10,1,2023-09-09 22:12:06.0400,1694315526.039511,-0.001059139147400856,-0.0037707698065787554,-0.0022591594606637955,0.0475921630859375,-0.0646209716796875,-0.99249267578125,111.79924011230469,-28.69317626953125,-38.603759765625,2023-09-09 22:12:05.6730,1694315525.6725678,-0.0010650127660483122,0.0028704237192869186,-0.016051393002271652,-0.7721863985061646,0.616546630859375,0.10569773614406586,
0,2023-09-09 22:11:39.1360,02:25,10,1,2023-09-09 22:12:06.1380,1694315526.138387,-0.003233077470213175,-0.006192115601152182,-0.0020501012913882732,0.0485076904296875,-0.06268310546875,-0.9892425537109375,111.81318664550781,-28.60858154296875,-38.60633850097656,2023-09-09 22:12:05.7730,1694315525.7725801,-0.021138256415724754,-0.016904745250940323,0.011573809199035168,-0.7673340439796448,0.6034851670265198,0.10469073802232742,
0,2023-09-09 22:11:39.1360,02:25,10,1,2023-09-09 22:12:06.2390,1694315526.238708,0.0012892362428829074,-0.0057281930930912495,-0.0034727619495242834,0.048675537109375,-0.063446044921875,-0.9915618896484375,111.82298278808594,-28.660263061523438,-38.35621643066406,2023-09-09 22:12:05.8720,1694315525.872388,-0.015894757583737373,-0.00917971320450306,0.005779170896857977,-0.7737274765968323,0.6019440293312073,0.09281940758228302,
0,2023-09-09 22:11:39.1360,02:25,10,1,2023-09-09 22:12:06.3390,1694315526.338501,-0.0015334481140598655,-0.005419799126684666,-0.002491120947524905,0.0471954345703125,-0.0626373291015625,-0.990966796875,111.86383056640625,-28.753219604492188,-38.306182861328125,2023-09-09 22:12:05.9720,1694315525.972107,0.015826020389795303,-0.0005430830642580986,-0.020157288759946823,-0.8035889267921448,0.6387177109718323,0.09297190606594086,
0,2023-09-09 22:11:39.1360,02:25,10,1,2023-09-09 22:12:06.4380,1694315526.4383678,-0.000595216522924602,-0.004535363521426916,-0.002552906284108758,0.0467987060546875,-0.063079833984375,-0.9945068359375,111.86383056640625,-28.753219604492188,-38.306182861328125,2023-09-09 22:12:06.0720,1694315526.072106,0.016566112637519836,-0.010362956672906876,-0.0033705851528793573,-0.7777253985404968,0.631118893623352,0.08946241438388824,
0,2023-09-09 22:11:39.1360,02:25,10,1,2023-09-09 22:12:06.5380,1694315526.5377588,-0.003011502558365464,-0.00535375252366066,-0.0035358788445591927,0.0464324951171875,-0.0643310546875,-0.9928741455078125,111.70799255371094,-28.368804931640625,-38.27290344238281,2023-09-09 22:12:06.1720,1694315526.171788,0.0024001591373234987,1.3384968042373657e-05,-0.01850862428545952,-0.7813568711280823,0.6467285752296448,0.11051953583955765,
0,2023-09-09 22:11:39.1360,02:25,10,1,2023-09-09 22:12:06.6380,1694315526.637507,-0.0023763386998325586,-0.0057007623836398125,-0.0034258903469890356,0.047332763671875,-0.0668182373046875,-0.9956817626953125,111.75442504882812,-28.569503784179688,-38.41181945800781,2023-09-09 22:12:06.2720,1694315526.272124,0.015856847167015076,-0.002951778471469879,-0.0063530257903039455,-0.7834931015968323,0.6231232285499573,0.07839976996183395,
0,2023-09-09 22:11:39.1360,02:25,10,1,2023-09-09 22:12:06.7400,1694315526.7395558,-0.0005198490689508617,-0.0038048583082854748,-0.0033715618774294853,0.0484619140625,-0.0654296875,-0.995574951171875,111.83816528320312,-28.418685913085938,-38.83221435546875,2023-09-09 22:12:06.3710,1694315526.3713942,-0.024965817108750343,-0.002590121701359749,0.02351878583431244,-0.7658539414405823,0.6262206435203552,0.09297196567058563,
0,2023-09-09 22:11:39.1360,02:25,10,1,2023-09-09 22:12:06.8400,1694315526.839637,-0.00015686018741689622,-0.005251753609627485,-0.0034522556234151125,0.0491180419921875,-0.0668182373046875,-0.99566650390625,111.90925598144531,-28.661758422851562,-38.67695617675781,2023-09-09 22:12:06.4710,1694315526.471408,-0.025064021348953247,-0.01304023340344429,0.0066701313480734825,-0.78277587890625,0.6376037001609802,0.10583500564098358,
0,2023-09-09 22:11:39.1360,02:25,10,1,2023-09-09 22:12:06.9390,1694315526.938569,-0.004599545616656542,-0.00401524780318141,-0.0016860472969710827,0.04852294921875,-0.064971923828125,-0.9941558837890625,111.87297058105469,-28.627578735351562,-38.79060363769531,2023-09-09 22:12:06.5710,1694315526.571196,0.0008719043107703328,-0.03744424134492874,0.027242017909884453,-0.7759248614311218,0.6001740097999573,0.11128251254558563,
0,2023-09-09 22:11:39.1360,02:25,10,1,2023-09-09 22:12:07.0400,1694315527.0402741,-8.868326403899118e-05,-0.004730839282274246,-0.004310858901590109,0.0499267578125,-0.065399169921875,-0.993988037109375,111.77070617675781,-28.318023681640625,-38.74974060058594,2023-09-09 22:12:06.6710,1694315526.670887,0.031808312982320786,0.03624049574136734,0.019243447110056877,-0.7538300156593323,0.6105805039405823,0.12847914546728134,
