SessionID,SessionDate,SessionDuration,SessionFrequency,RecordID,Timestamp,timeIntervalSince1970,GyroX,GyroY,GyroZ,AccX,AccY,AccZ,MagX,MagY,MagZ,WatchTimestamp,WatchtImeIntervalSince1970,WatchGyroX,WatchGyroY,WatchGyroZ,WatchAccX,WatchAccY,WatchAccZ
1,2023-09-09 21:47:46.8590,02:58,10,1,2023-09-09 21:47:46.9600,1694314066.959595,-0.0019382486352697015,-0.002882871776819229,-0.003622697899118066,0.05584716796875,-0.039703369140625,-0.9986419677734375,108.87249755859375,-26.333816528320312,-39.168670654296875,2023-09-09 21:47:46.5970,1694314066.5974522,-0.0045973630622029305,0.01112209539860487,-0.41963937878608704,-0.1627350151538849,-0.1735077202320099,-0.9530181884765625,
1,2023-09-09 21:47:46.8590,02:58,10,1,2023-09-09 21:47:47.0700,1694314067.0704122,0.0010330402292311192,-0.005121258553117514,-0.0030807447619736195,0.055877685546875,-0.03912353515625,-0.99920654296875,108.92527770996094,-26.14862060546875,-39.89573669433594,2023-09-09 21:47:46.7510,1694314066.751185,-0.008677458390593529,0.03925492987036705,-0.2457474023103714,-0.1154022365808487,-0.1713562309741974,-0.9658507704734802,
1,2023-09-09 21:47:46.8590,02:58,10,1,2023-09-09 21:47:47.2020,1694314067.2019749,-0.0002463423879817128,-0.005079180933535099,-0.0029609024059027433,0.055267333984375,-0.03961181640625,-0.9983673095703125,108.98086547851562,-26.174407958984375,-39.87034606933594,2023-09-09 21:47:46.7950,1694314066.79509,0.08217215538024902,-0.030386462807655334,-0.12499576061964035,-0.1048583984375,-0.1902771145105362,-0.9643096327781677,
1,2023-09-09 21:47:46.8590,02:58,10,1,2023-09-09 21:47:47.2710,1694314067.271326,-0.001704689348116517,-0.006715160794556141,-0.0016562198288738728,0.0559539794921875,-0.0393524169921875,-0.9990234375,108.98086547851562,-26.174407958984375,-39.87034606933594,2023-09-09 21:47:46.8980,1694314066.898159,0.0015644594095647335,0.01816575601696968,-0.1992095559835434,-0.1513519510626793,-0.2124176174402237,-0.9689483046531677,
1,2023-09-09 21:47:46.8590,02:58,10,1,2023-09-09 21:47:47.3690,1694314067.3691201,0.00014381069922819734,-0.004181961994618177,-0.003579554846510291,0.05560302734375,-0.0382232666015625,-0.998779296875,108.88914489746094,-26.214645385742188,-40.25140380859375,2023-09-09 21:47:47.0110,1694314067.011075,-0.022659853100776672,-0.011384544894099236,-0.14803922176361084,-0.1707306057214737,-0.18162541091442108,-0.86773681640625,
1,2023-09-09 21:47:46.8590,02:58,10,1,2023-09-09 21:47:47.4680,1694314067.468189,0.00014381069922819734,-0.004181961994618177,-0.003579554846510291,0.0550537109375,-0.038726806640625,-0.9992218017578125,109.02360534667969,-26.312149047851562,-40.22117614746094,2023-09-09 21:47:47.0940,1694314067.094058,0.2187660187482834,-0.11138291656970978,-0.10655245929956436,-0.1506653130054474,-0.1702881157398224,-0.9598235487937927,
1,2023-09-09 21:47:46.8590,02:58,10,1,2023-09-09 21:47:47.5680,1694314067.567759,-0.0013337110867723823,-0.004973985720425844,6.072007090551779e-05,0.0559844970703125,-0.039581298828125,-0.998870849609375,108.82502746582031,-26.213409423828125,-40.71722412109375,2023-09-09 21:47:47.1940,1694314067.193733,0.10015275329351425,-0.049655504524707794,-0.049606990069150925,-0.1265869289636612,-0.17074589431285858,-0.9767608046531677,
1,2023-09-09 21:47:46.8590,02:58,10,1,2023-09-09 21:47:47.6630,1694314067.66341,-0.0008407599525526166,-0.0017116136150434613,-0.0027236149180680513,0.055755615234375,-0.0385284423828125,-0.9997711181640625,108.91975402832031,-26.163360595703125,-40.33781433105469,2023-09-09 21:47:47.2940,1694314067.29382,-0.04442846402525902,-0.02528691291809082,-0.019634010270237923,-0.1408844292163849,-0.1850433647632599,-0.9617156982421875,
1,2023-09-09 21:47:46.8590,02:58,10,1,2023-09-09 21:47:47.7600,1694314067.759656,-0.003022421384230256,-0.004232828039675951,-0.0032229574862867594,0.05596923828125,-0.0394287109375,-0.9985504150390625,108.82542419433594,-26.101959228515625,-39.838836669921875,2023-09-09 21:47:47.3930,1694314067.393337,-0.015042547136545181,0.020135298371315002,0.07126404345035553,-0.1319122463464737,-0.2210388481616974,-0.9572906494140625,
1,2023-09-09 21:47:46.8590,02:58,10,1,2023-09-09 21:47:47.8590,1694314067.8593578,-0.0003510046226438135,-0.0037404096219688654,-0.003976366017013788,0.0555572509765625,-0.038360595703125,-0.9991302490234375,108.58821105957031,-25.915969848632812,-40.60472106933594,2023-09-09 21:47:47.4930,1694314067.493383,-0.10036130994558334,-0.011312905699014664,0.058577071875333786,-0.1410217434167862,-0.2157287895679474,-0.9559173583984375,
1,2023-09-09 21:47:46.8590,02:58,10,1,2023-09-09 21:47:47.9700,1694314067.969548,-0.0012535499408841133,-0.0057007623836398125,-0.003108707955107093,0.054473876953125,-0.0386962890625,-0.9994354248046875,108.58131408691406,-25.860824584960938,-40.7247314453125,2023-09-09 21:47:47.5930,1694314067.5931458,-0.05407416820526123,-0.0032846741378307343,0.034325893968343735,-0.1363830715417862,-0.2083130180835724,-0.9774932265281677,
1,2023-09-09 21:47:46.8590,02:58,10,1,2023-09-09 21:47:48.0610,1694314068.061283,0.00031318774563260376,-0.004189684987068176,-0.0010319749126210809,0.05633544921875,-0.039642333984375,-0.9998931884765625,108.62362670898438,-25.855224609375,-40.579559326171875,2023-09-09 21:47:47.6930,1694314067.693293,-0.056922152638435364,0.011831694282591343,-0.001029167091473937,-0.1348876953125,-0.1969604641199112,-0.9738463759422302,
1,2023-09-09 21:47:46.8590,02:58,10,1,2023-09-09 21:47:48.1620,1694314068.1615071,-0.0017030915478244424,-0.0032408006954938173,-0.0018018947448581457,0.056396484375,-0.0395660400390625,-0.9991302490234375,108.75456237792969,-26.167938232421875,-40.07887268066406,2023-09-09 21:47:47.7930,1694314067.792932,-0.021498583257198334,0.006525745149701834,-0.025297654792666435,-0.15179443359375,-0.2058868557214737,-0.9620208144187927,
1,2023-09-09 21:47:46.8590,02:58,10,1,2023-09-09 21:47:48.2590,1694314068.259078,0.0004953479510731995,-0.005141498986631632,-0.0021699436474591494,0.055511474609375,-0.0389251708984375,-0.9987030029296875,108.7037353515625,-25.840240478515625,-40.65476989746094,2023-09-09 21:47:47.8930,1694314067.8928099,-0.09637369215488434,0.05156579241156578,-0.06106866896152496,-0.1441192626953125,-0.2378540188074112,-0.9622954726219177,
1,2023-09-09 21:47:46.8590,02:58,10,1,2023-09-09 21:47:48.3700,1694314068.36988,0.0010016148444265127,-0.003315103007480502,-0.0012966931099072099,0.0556640625,-0.0382843017578125,-0.99884033203125,108.714111328125,-25.919357299804688,-40.564056396484375,2023-09-09 21:47:47.9930,1694314067.9926538,-0.058150868862867355,0.0511520691215992,-0.26899513602256775,-0.1527099907398224,-0.2261658012866974,-0.9429931640625,
1,2023-09-09 21:47:46.8590,02:58,10,1,2023-09-09 21:47:48.4700,1694314068.469791,-0.0016319850692525506,-0.0029968551825731993,-0.004314321093261242,0.0552978515625,-0.038543701171875,-0.9973602294921875,108.97660827636719,-26.159194946289062,-40.389892578125,2023-09-09 21:47:48.0930,1694314068.092582,0.1329188197851181,-0.01484212838113308,-0.1978875994682312,-0.0899963527917862,-0.1870422661304474,-0.958282470703125,
1,2023-09-09 21:47:46.8590,02:58,10,1,2023-09-09 21:47:48.5700,1694314068.570049,-0.0014966964954510331,-0.0034258903469890356,-0.0024732777383178473,0.0565185546875,-0.037994384765625,-1.00054931640625,108.82151794433594,-26.018798828125,-40.59466552734375,2023-09-09 21:47:48.1920,1694314068.192268,0.0845012217760086,-0.010001832619309425,-0.07141315937042236,-0.06504824012517929,-0.1788482964038849,-0.9677276015281677,
1,2023-09-09 21:47:46.8590,02:58,10,1,2023-09-09 21:47:48.6690,1694314068.669426,0.0014642059104517102,-0.004462126176804304,-0.004849083721637726,0.0556182861328125,-0.0385589599609375,-0.998626708984375,108.79179382324219,-26.06048583984375,-40.843475341796875,2023-09-09 21:47:48.2920,1694314068.292148,0.001164252869784832,-0.00024507567286491394,-0.11393997073173523,-0.1471710354089737,-0.2013092339038849,-0.985321044921875,
1,2023-09-09 21:47:46.8590,02:58,10,1,2023-09-09 21:47:48.7700,1694314068.770378,-0.0022295983508229256,-0.0072778863832354546,-0.003132942598313093,0.054931640625,-0.0389862060546875,-0.9991607666015625,108.78775024414062,-25.937088012695312,-41.26399230957031,2023-09-09 21:47:48.3920,1694314068.392026,-0.6397945880889893,0.1948920637369156,-0.8564574122428894,-0.2925415188074112,-0.2601471245288849,-1.0152129530906677,
1,2023-09-09 21:47:46.8590,02:58,10,1,2023-09-09 21:47:48.8710,1694314068.870524,-0.0036908749025315046,-0.005646167788654566,0.0001739044237183407,0.054595947265625,-0.0389404296875,-0.9977569580078125,108.613525390625,-25.644332885742188,-41.2298583984375,2023-09-09 21:47:48.4920,1694314068.491808,-1.7252171039581299,0.4619932770729065,-1.5867305994033813,-0.2262420803308487,-0.2572021782398224,-0.9748992919921875,
1,2023-09-09 21:47:46.8590,02:58,10,1,2023-09-09 21:47:48.9700,1694314068.969706,0.0007890945998951793,-0.005311142187565565,-0.002951048780232668,0.0562286376953125,-0.038543701171875,-1.0,108.73255920410156,-25.710174560546875,-41.25840759277344,2023-09-09 21:47:48.5920,1694314068.591568,-1.0152227878570557,0.8718134164810181,-2.237403631210327,-0.1446838416159153,0.059555020183324814,-1.0076904296875,
1,2023-09-09 21:47:46.8590,02:58,10,1,2023-09-09 21:47:49.0620,1694314069.062446,-0.00390312890522182,-0.004055461846292019,-0.0014500912511721253,0.0559539794921875,-0.0379791259765625,-0.999481201171875,108.79090881347656,-25.997146606445312,-41.03074645996094,2023-09-09 21:47:48.6910,1694314068.691452,-0.36353549361228943,0.6070364713668823,-2.2349870204925537,-0.1195831224322319,0.2053832709789276,-0.8582305908203125,
1,2023-09-09 21:47:46.8590,02:58,10,1,2023-09-09 21:47:49.1750,1694314069.1752172,-0.001246892032213509,-0.002280997345224023,-0.0015611450653523207,0.055938720703125,-0.038055419921875,-0.9990997314453125,108.68527221679688,-25.879592895507812,-41.264678955078125,2023-09-09 21:47:48.7910,1694314068.791311,-0.5417625308036804,0.10379210859537125,-1.2899198532104492,0.08523561805486679,0.4156036078929901,-0.9086151123046875,
1,2023-09-09 21:47:46.8590,02:58,10,1,2023-09-09 21:47:49.2700,1694314069.2696161,-0.004087952431291342,-0.0024562333710491657,-0.004693288821727037,0.055145263671875,-0.0382843017578125,-0.99896240234375,108.68942260742188,-25.78375244140625,-40.854522705078125,2023-09-09 21:47:48.8910,1694314068.891074,0.024818383157253265,-0.24206742644309998,0.28952258825302124,0.6145935244858265,0.2795409858226776,-0.948944091796875,
1,2023-09-09 21:47:46.8590,02:58,10,1,2023-09-09 21:47:49.3800,1694314069.379616,-0.0012298477813601494,-0.004265851341187954,-0.002694852650165558,0.05523681640625,-0.0382080078125,-0.9993438720703125,108.6712646484375,-26.083145141601562,-41.168182373046875,2023-09-09 21:47:48.9910,1694314068.990991,-1.6545592546463013,-0.2907309830188751,-0.9221993684768677,0.11628725007176399,0.3404998183250427,-0.8767547607421875,
1,2023-09-09 21:47:46.8590,02:58,10,1,2023-09-09 21:47:49.4680,1694314069.46848,-0.0012298477813601494,-0.004265851341187954,-0.002694852650165558,0.0557861328125,-0.0385894775390625,-0.9995880126953125,108.55160522460938,-25.668594360351562,-41.13999938964844,2023-09-09 21:47:49.0910,1694314069.0909371,-0.6946824789047241,-0.025784123688936234,-0.6854680180549622,-0.10127256158739328,0.2873077094554901,-0.903289794921875,
1,2023-09-09 21:47:46.8590,02:58,10,1,2023-09-09 21:47:49.5700,1694314069.569576,0.001076715998351574,-0.003951864782720804,-0.002251968951895833,0.055999755859375,-0.03826904296875,-0.99920654296875,108.76835632324219,-25.75701904296875,-41.303314208984375,2023-09-09 21:47:49.1910,1694314069.190847,-0.8160245418548584,-0.004685763269662857,-0.558892011642456,0.12911987490952015,0.57135009765625,-0.8319244384765625,
1,2023-09-09 21:47:46.8590,02:58,10,1,2023-09-09 21:47:49.6700,1694314069.6697822,0.00034354778472334146,-0.004174238536506891,-0.002721750643104315,0.0552215576171875,-0.0380859375,-0.9986724853515625,108.70529174804688,-25.575546264648438,-41.1673583984375,2023-09-09 21:47:49.2910,1694314069.290632,-1.2662166357040405,-0.30462202429771423,-0.9147934317588806,0.02824406325817108,0.5590057373046875,-0.6534423828125,
1,2023-09-09 21:47:46.8590,02:58,10,1,2023-09-09 21:47:49.8180,1694314069.818485,-0.0024764735717326403,-0.004340686369687319,-0.001657551503740251,0.0552215576171875,-0.038848876953125,-0.9989166259765625,108.76112365722656,-25.825607299804688,-40.57501220703125,2023-09-09 21:47:49.3900,1694314069.390317,0.6103445291519165,0.18076477944850922,-0.0958559438586235,-0.056503280997276306,0.8308563232421875,-0.779205322265625,
1,2023-09-09 21:47:46.8590,02:58,10,1,2023-09-09 21:47:49.8700,1694314069.8701859,-0.0024764735717326403,-0.004340686369687319,-0.001657551503740251,0.0556640625,-0.0396270751953125,-0.9982452392578125,108.76112365722656,-25.825607299804688,-40.57501220703125,2023-09-09 21:47:49.4900,1694314069.490072,-0.5273799896240234,0.2408442348241806,0.238785982131958,-0.046783413738012314,0.3980560302734375,-0.81390380859375,
1,2023-09-09 21:47:46.8590,02:58,10,1,2023-09-09 21:47:49.9680,1694314069.9684339,0.00039947417099028826,-0.0060152821242809296,-0.0020453077740967274,0.0564117431640625,-0.0392913818359375,-0.999908447265625,108.80195617675781,-25.829177856445312,-40.813140869140625,2023-09-09 21:47:49.5900,1694314069.5901198,0.676357090473175,0.04419615864753723,0.3837435841560364,-0.003372175619006157,0.66680908203125,-0.7951202392578125,
1,2023-09-09 21:47:46.8590,02:58,10,1,2023-09-09 21:47:50.0690,1694314070.069036,-0.0008993495139293373,-0.0046631949953734875,-0.0015060176374390721,0.055572509765625,-0.0384979248046875,-0.9993133544921875,108.70841979980469,-25.833297729492188,-40.581634521484375,2023-09-09 21:47:49.6900,1694314069.689855,1.271622657775879,-0.22663173079490662,0.7284700870513916,0.01678468706086278,0.6262054443359375,-0.8303375244140625,
1,2023-09-09 21:47:46.8590,02:58,10,1,2023-09-09 21:47:50.1860,1694314070.185995,-0.0017326525412499905,-0.005869606975466013,-0.0012112056137993932,0.055877685546875,-0.038787841796875,-0.9988555908203125,108.74105834960938,-25.958358764648438,-40.60957336425781,2023-09-09 21:47:49.7900,1694314069.789727,0.6876949071884155,-0.08093766123056412,0.5790440440177917,-0.006011949852108955,0.40545654296875,-0.9177398681640625,
1,2023-09-09 21:47:46.8590,02:58,10,1,2023-09-09 21:47:50.2590,1694314070.2593079,-0.0017326525412499905,-0.005869606975466013,-0.0012112056137993932,0.055877685546875,-0.038787841796875,-0.9988555908203125,108.79058837890625,-26.0732421875,-40.76124572753906,2023-09-09 21:47:49.8900,1694314069.8897061,0.7009673118591309,0.01805070787668228,0.6060835123062134,0.040252696722745895,0.41412353515625,-0.8560333847999573,
1,2023-09-09 21:47:46.8590,02:58,10,1,2023-09-09 21:47:50.4020,1694314070.4018621,-0.002657302189618349,-0.005212604999542236,-0.003757720347493887,0.055938720703125,-0.0385589599609375,-0.9995574951171875,108.61392211914062,-25.9376220703125,-40.86982727050781,2023-09-09 21:47:49.9890,1694314069.989279,-0.022614913061261177,0.029273267835378647,0.1339114010334015,0.07272341474890709,0.3058929145336151,-0.9186859130859375,
1,2023-09-09 21:47:46.8590,02:58,10,1,2023-09-09 21:47:50.4680,1694314070.46848,-0.002657302189618349,-0.005212604999542236,-0.003757720347493887,0.0554962158203125,-0.0395660400390625,-0.999969482421875,108.7515869140625,-25.9539794921875,-40.72953796386719,2023-09-09 21:47:50.0890,1694314070.089151,-0.2193496823310852,-0.2215147465467453,0.11795540899038315,0.033264171332120895,0.3949889838695526,-0.8500518798828125,
1,2023-09-09 21:47:46.8590,02:58,10,1,2023-09-09 21:47:50.5700,1694314070.56955,-0.0033124396577477455,-0.004702077247202396,-0.0043910201638937,0.054840087890625,-0.0378875732421875,-0.9991607666015625,108.66871643066406,-26.164382934570312,-40.88264465332031,2023-09-09 21:47:50.1890,1694314070.188964,-0.4445642828941345,-0.31407052278518677,0.2704105079174042,0.1363678276538849,0.7977447509765625,-0.7216492295265198,
1,2023-09-09 21:47:46.8590,02:58,10,1,2023-09-09 21:47:50.6700,1694314070.669605,0.0005912217311561108,-0.003073021536692977,-0.0011086739832535386,0.0555877685546875,-0.0386199951171875,-0.9999237060546875,108.73710632324219,-25.834121704101562,-40.67933654785156,2023-09-09 21:47:50.2890,1694314070.2888699,0.05878986790776253,-0.01761341094970703,0.07110744714736938,0.018783584237098694,0.4794921576976776,-0.9202423095703125,
1,2023-09-09 21:47:46.8590,02:58,10,1,2023-09-09 21:47:50.7700,1694314070.770071,-0.0036213663406670094,-0.003466636873781681,-0.003977164626121521,0.0565643310546875,-0.03973388671875,-0.999603271484375,108.79856872558594,-26.134017944335938,-40.559539794921875,2023-09-09 21:47:50.3890,1694314070.388647,0.06483390927314758,-0.0627550557255745,-0.12041977047920227,0.001220719888806343,0.4105224311351776,-0.921142578125,
1,2023-09-09 21:47:46.8590,02:58,10,1,2023-09-09 21:47:50.8700,1694314070.869669,-0.05349225178360939,0.09835772961378098,0.0775991901755333,0.0633544921875,-0.033935546875,-0.9817047119140625,108.726806640625,-25.806320190429688,-40.808319091796875,2023-09-09 21:47:50.4880,1694314070.488359,0.30485567450523376,-0.10964985936880112,-0.332135409116745,-0.005477903410792351,0.3609771430492401,-0.9248199462890625,
1,2023-09-09 21:47:46.8590,02:58,10,1,2023-09-09 21:47:50.9680,1694314070.968419,0.020204337313771248,0.04449076950550079,-0.012599415145814419,0.04345703125,-0.034393310546875,-0.9760894775390625,108.66719055175781,-25.601150512695312,-40.90980529785156,2023-09-09 21:47:50.5880,1694314070.588317,-0.17962577939033508,-0.02067551575601101,-0.017307572066783905,-0.021957386285066605,0.5064391791820526,-0.9359893798828125,
1,2023-09-09 21:47:46.8590,02:58,10,1,2023-09-09 21:47:51.0690,1694314071.068573,-0.11519476771354675,0.009729859419167042,0.2965725362300873,0.061981201171875,-0.02410888671875,-0.9767608642578125,108.42073059082031,-25.429412841796875,-40.988433837890625,2023-09-09 21:47:50.6880,1694314070.6882892,-0.1576235294342041,-0.24909111857414246,-0.2195500284433365,0.012695332989096642,0.3111266791820526,-0.9157257080078125,
1,2023-09-09 21:47:46.8590,02:58,10,1,2023-09-09 21:47:51.1780,1694314071.1775079,0.5880666971206665,0.1575147956609726,0.0318191833794117,0.04156494140625,-0.0729827880859375,-0.939788818359375,108.85752868652344,-26.836349487304688,-40.37229919433594,2023-09-09 21:47:50.7880,1694314070.788166,0.30517181754112244,-0.12702777981758118,-0.13832440972328186,-0.2523650974035263,0.3427428901195526,-0.939971923828125,
1,2023-09-09 21:47:46.8590,02:58,10,1,2023-09-09 21:47:51.2730,1694314071.273458,0.05492157116532326,0.150425985455513,0.26071494817733765,0.04156494140625,-0.0729827880859375,-0.939788818359375,109.83906555175781,-27.934326171875,-38.53938293457031,2023-09-09 21:47:50.8880,1694314070.887835,-0.011619186960160732,-0.08343583345413208,0.029455004259943962,-0.0654144175350666,0.4106445014476776,-0.913177490234375,
1,2023-09-09 21:47:46.8590,02:58,10,1,2023-09-09 21:47:51.3780,1694314071.377522,0.7999387383460999,0.3563788831233978,0.5265485048294067,0.053955078125,-0.0437469482421875,-0.8917236328125,108.41001892089844,-25.223526000976562,-41.05146789550781,2023-09-09 21:47:50.9880,1694314070.987743,-0.3942611813545227,-0.020686835050582886,0.03785771131515503,-0.049728378653526306,0.4437407851219177,-0.9022216796875,
1,2023-09-09 21:47:46.8590,02:58,10,1,2023-09-09 21:47:51.4970,1694314071.497328,0.361742228269577,-0.11406851559877396,0.08465337008237839,0.053955078125,-0.0437469482421875,-0.8917236328125,108.16676330566406,-25.427734375,-40.92994689941406,2023-09-09 21:47:51.0880,1694314071.0875,-0.2984486222267151,0.05485905334353447,0.04531855881214142,-0.06285092979669571,0.4361419677734375,-0.8883514404296875,
1,2023-09-09 21:47:46.8590,02:58,10,1,2023-09-09 21:47:51.6260,1694314071.625958,0.037099696695804596,-0.025956233963370323,0.0032352081034332514,0.068450927734375,-0.030303955078125,-1.0303497314453125,108.52735900878906,-26.64251708984375,-37.880859375,2023-09-09 21:47:51.1870,1694314071.1873431,0.16840098798274994,0.027103591710329056,-0.008522636257112026,-0.03730771318078041,0.48974609375,-0.877655029296875,
1,2023-09-09 21:47:46.8590,02:58,10,1,2023-09-09 21:47:51.6690,1694314071.668791,0.02281237207353115,-0.03568529337644577,0.0013185309944674373,0.0682525634765625,-0.0275421142578125,-0.9957733154296875,108.30661010742188,-26.10443115234375,-39.673828125,2023-09-09 21:47:51.2870,1694314071.287239,0.12332431972026825,-0.022425878793001175,-0.027626290917396545,-0.044296249747276306,0.41473388671875,-0.89154052734375,
1,2023-09-09 21:47:46.8590,02:58,10,1,2023-09-09 21:47:51.7610,1694314071.760723,0.007848069071769714,-0.022276276722550392,0.01458959560841322,0.056304931640625,-0.029632568359375,-0.9967041015625,108.18400573730469,-26.060760498046875,-40.73809814453125,2023-09-09 21:47:51.3870,1694314071.3870869,-0.04518680274486542,0.025000493973493576,-0.008841883391141891,-0.0584106370806694,0.4534911811351776,-0.89654541015625,
1,2023-09-09 21:47:46.8590,02:58,10,1,2023-09-09 21:47:51.8890,1694314071.888824,-0.001041295938193798,-0.004445082042366266,0.007809986360371113,0.04046630859375,-0.0211944580078125,-1.0033111572265625,108.373291015625,-26.3134765625,-38.983917236328125,2023-09-09 21:47:51.4870,1694314071.487004,-0.07562512904405594,-0.02491220459342003,0.0051251985132694244,-0.04002378135919571,0.4203948676586151,-0.8947600722312927,
1,2023-09-09 21:47:46.8590,02:58,10,1,2023-09-09 21:47:51.9640,1694314071.9637442,0.317099392414093,0.2968609631061554,0.15971669554710388,0.04046630859375,-0.0211944580078125,-1.0033111572265625,108.67509460449219,-27.90814208984375,-37.240692138671875,2023-09-09 21:47:51.5870,1694314071.586767,-0.15971770882606506,-0.045746512711048126,-0.0006865847972221673,-0.04597470536828041,0.4417571723461151,-0.8899993896484375,
1,2023-09-09 21:47:46.8590,02:58,10,1,2023-09-09 21:47:52.1570,1694314072.1572518,0.007703459821641445,0.023357519879937172,0.01888820342719555,0.0500640869140625,0.0070648193359375,-1.0192413330078125,108.46005249023438,-26.244735717773438,-38.02616882324219,2023-09-09 21:47:51.6870,1694314071.686689,-0.04875743389129639,-0.00662960484623909,-0.02884628437459469,-0.04908749461174011,0.445953369140625,-0.8876495361328125,
1,2023-09-09 21:47:46.8590,02:58,10,1,2023-09-09 21:47:52.1580,1694314072.1581979,0.007703459821641445,0.023357519879937172,0.01888820342719555,0.0500640869140625,0.0070648193359375,-1.0192413330078125,108.46005249023438,-26.244735717773438,-38.02616882324219,2023-09-09 21:47:51.7860,1694314071.786473,-0.04424956440925598,-0.03249675780534744,-0.02012746036052704,-0.0497436448931694,0.4502563178539276,-0.884552001953125,
1,2023-09-09 21:47:46.8590,02:58,10,1,2023-09-09 21:47:52.2640,1694314072.263778,-0.02063789963722229,-0.017681259661912918,-0.004718055948615074,0.046417236328125,-0.030975341796875,-0.9640045166015625,107.80235290527344,-25.482635498046875,-40.813507080078125,2023-09-09 21:47:51.8860,1694314071.886242,-0.04167322441935539,-0.04287349432706833,-0.007814868353307247,-0.0599517747759819,0.4649505317211151,-0.884765625,
1,2023-09-09 21:47:46.8590,02:58,10,1,2023-09-09 21:47:52.3690,1694314072.36903,0.05867369845509529,-0.02484090067446232,0.024399083107709885,0.05084228515625,-0.03375244140625,-1.0113525390625,107.8287353515625,-25.922470092773438,-40.2076416015625,2023-09-09 21:47:51.9860,1694314071.986131,0.05018852278590202,-0.006670217029750347,-0.015543094836175442,-0.06266782432794571,0.4609832465648651,-0.881072998046875,
1,2023-09-09 21:47:46.8590,02:58,10,1,2023-09-09 21:47:52.4610,1694314072.460679,0.11190975457429886,-0.027227891609072685,0.00566933723166585,0.050994873046875,-0.0362548828125,-1.005859375,107.50160217285156,-25.954910278320312,-40.4791259765625,2023-09-09 21:47:52.0860,1694314072.085775,-0.01725776307284832,-0.010615691542625427,-0.01647007465362549,-0.05902096629142761,0.4683227241039276,-0.8855133056640625,
1,2023-09-09 21:47:46.8590,02:58,10,1,2023-09-09 21:47:52.5610,1694314072.560512,-0.02719673328101635,0.009641176089644432,-0.0034969968255609274,0.04107666015625,-0.04730224609375,-0.9941558837890625,107.5823974609375,-26.126541137695312,-39.961883544921875,2023-09-09 21:47:52.1860,1694314072.185905,-0.059574924409389496,0.005396165885031223,0.010199785232543945,-0.06105038896203041,0.4631499946117401,-0.8839569091796875,
1,2023-09-09 21:47:46.8590,02:58,10,1,2023-09-09 21:47:52.6610,1694314072.660687,-0.02719673328101635,0.009641176089644432,-0.0034969968255609274,0.0441741943359375,-0.04840087890625,-1.0021209716796875,107.61604309082031,-26.092086791992188,-40.457611083984375,2023-09-09 21:47:52.2860,1694314072.2856321,-0.10013933479785919,0.016668660566210747,0.01790747232735157,-0.06054684892296791,0.4592132568359375,-0.8804473876953125,
1,2023-09-09 21:47:46.8590,02:58,10,1,2023-09-09 21:47:52.7580,1694314072.7583442,-0.045394379645586014,0.01059085875749588,-0.0060264673084020615,0.0450897216796875,-0.04937744140625,-1.001007080078125,107.70791625976562,-26.300582885742188,-38.75807189941406,2023-09-09 21:47:52.3850,1694314072.385407,-0.04441601410508156,0.04629819095134735,-0.01003274880349636,-0.05856321379542351,0.4555663466453552,-0.8807373046875,
1,2023-09-09 21:47:46.8590,02:58,10,1,2023-09-09 21:47:52.8580,1694314072.8583388,-0.010074205696582794,0.0006074670236557722,-0.005030977539718151,0.0485992431640625,-0.0432891845703125,-0.997222900390625,108.16163635253906,-27.205841064453125,-36.73280334472656,2023-09-09 21:47:52.4850,1694314072.48523,-0.022989151999354362,0.05400058627128601,0.0729382336139679,-0.050186142325401306,0.4335021674633026,-0.880645751953125,
1,2023-09-09 21:47:46.8590,02:58,10,1,2023-09-09 21:47:52.9580,1694314072.958359,-0.01079991739243269,-0.0034589136485010386,-0.00330258603207767,0.0575714111328125,-0.0388336181640625,-0.99884033203125,107.42735290527344,-26.054962158203125,-40.47990417480469,2023-09-09 21:47:52.5850,1694314072.58514,0.12958486378192902,0.14025437831878662,0.037757910788059235,-0.047225940972566605,0.4722747504711151,-0.8837432861328125,
1,2023-09-09 21:47:46.8590,02:58,10,1,2023-09-09 21:47:53.0580,1694314073.058356,-0.0017893778858706355,-0.005280515644699335,-0.005730589851737022,0.0539398193359375,-0.04083251953125,-0.9983367919921875,107.44059753417969,-25.505722045898438,-41.36381530761719,2023-09-09 21:47:52.6850,1694314072.685044,0.030017472803592682,0.07008421421051025,0.03335200995206833,-0.04553220421075821,0.3723449409008026,-0.89739990234375,
1,2023-09-09 21:47:46.8590,02:58,10,1,2023-09-09 21:47:53.1580,1694314073.1583629,0.00026525085559114814,-0.0057652113027870655,-0.005101018585264683,0.055755615234375,-0.039794921875,-1.0012664794921875,107.48847961425781,-25.867599487304688,-40.474456787109375,2023-09-09 21:47:52.7850,1694314072.784937,0.11917544901371002,-0.0662698969244957,-0.005454308819025755,-0.0564117394387722,0.4630584716796875,-0.901763916015625,
1,2023-09-09 21:47:46.8590,02:58,10,1,2023-09-09 21:47:53.2580,1694314073.258349,-0.013815414160490036,0.007134874816983938,-0.005195294506847858,0.0513763427734375,-0.0460205078125,-0.988525390625,107.3489990234375,-25.778518676757812,-41.01029968261719,2023-09-09 21:47:52.8850,1694314072.88467,0.025764603167772293,0.1350817233324051,0.16110335290431976,-0.02818295918405056,0.4530639052391052,-0.8978271484375,
1,2023-09-09 21:47:46.8590,02:58,10,1,2023-09-09 21:47:53.3580,1694314073.3583531,0.007840080186724663,-0.0038924762047827244,-0.004609665367752314,0.0557403564453125,-0.0444183349609375,-1.0004730224609375,107.53045654296875,-25.506332397460938,-40.9466552734375,2023-09-09 21:47:52.9850,1694314072.9846,0.02223311923444271,0.09850373864173889,0.14318913221359253,-0.035049425438046455,0.3739471137523651,-0.9045562744140625,
1,2023-09-09 21:47:46.8590,02:58,10,1,2023-09-09 21:47:53.4580,1694314073.458431,0.12672358751296997,-0.021702099591493607,0.10247471183538437,0.07891845703125,-0.015289306640625,-0.9731597900390625,107.42462158203125,-24.998275756835938,-41.79698181152344,2023-09-09 21:47:53.0840,1694314073.084377,0.0826210305094719,-0.07813587784767151,-0.050517722964286804,0.009094256907701492,0.46197509765625,-0.890228271484375,
1,2023-09-09 21:47:46.8590,02:58,10,1,2023-09-09 21:47:53.5580,1694314073.558353,0.009879528544843197,-0.017961157485842705,0.006177202332764864,0.0593109130859375,-0.02581787109375,-1.0089111328125,107.23394775390625,-25.068145751953125,-41.55351257324219,2023-09-09 21:47:53.1840,1694314073.184201,-0.13206903636455536,-0.07325750589370728,-0.060609571635723114,-0.0061950646340847015,0.4160308837890625,-0.903564453125,
1,2023-09-09 21:47:46.8590,02:58,10,1,2023-09-09 21:47:53.6610,1694314073.661408,-0.14939667284488678,0.003373159794136882,0.1034877747297287,0.0649871826171875,-0.0704498291015625,-1.0609893798828125,107.37846374511719,-24.83905029296875,-41.36627197265625,2023-09-09 21:47:53.2840,1694314073.284055,-0.05205975100398064,-0.21845823526382446,-0.08318235725164413,-0.026000961661338806,0.3907775580883026,-0.90093994140625,
1,2023-09-09 21:47:46.8590,02:58,10,1,2023-09-09 21:47:53.7730,1694314073.772567,-0.09806264936923981,-0.0034642398823052645,0.0014799186028540134,0.047210693359375,-0.0492095947265625,-1.031280517578125,107.10334777832031,-24.863861083984375,-42.478668212890625,2023-09-09 21:47:53.3840,1694314073.383891,-0.11243893951177597,-0.08179865777492523,-0.023489203304052353,-0.06394956260919571,0.4669189155101776,-0.8895569443702698,
1,2023-09-09 21:47:46.8590,02:58,10,1,2023-09-09 21:47:53.8720,1694314073.8717031,0.024581775069236755,-0.022821160033345222,0.003020290983840823,0.047119140625,-0.044647216796875,-0.96136474609375,107.01416015625,-25.336624145507812,-42.03704833984375,2023-09-09 21:47:53.4840,1694314073.483716,0.046896785497665405,0.0323185920715332,-0.01533200591802597,-0.045883163809776306,0.4617614448070526,-0.8903502821922302,
1,2023-09-09 21:47:46.8590,02:58,10,1,2023-09-09 21:47:53.9720,1694314073.9718552,-0.042162101715803146,-0.0031726236920803785,0.00373082235455513,0.048828125,-0.050689697265625,-1.0063323974609375,106.95281982421875,-25.407424926757812,-42.05537414550781,2023-09-09 21:47:53.5840,1694314073.58357,-0.08374857157468796,0.009389575570821762,0.013887930661439896,-0.050048813223838806,0.4509887397289276,-0.89093017578125,
1,2023-09-09 21:47:46.8590,02:58,10,1,2023-09-09 21:47:54.0600,1694314074.059754,-0.012811136431992054,0.0025603631511330605,-0.0031334753148257732,0.0506591796875,-0.0434722900390625,-1.005157470703125,106.86224365234375,-25.283721923828125,-42.50248718261719,2023-09-09 21:47:53.6840,1694314073.683502,-0.015404004603624344,0.03355536609888077,0.011267713271081448,-0.045196518301963806,0.4586944580078125,-0.8856964111328125,
1,2023-09-09 21:47:46.8590,02:58,10,1,2023-09-09 21:47:54.1600,1694314074.15993,-0.010391920804977417,-0.00046818371629342437,-0.0001549959706608206,0.0520477294921875,-0.038482666015625,-0.9946441650390625,106.962890625,-24.977264404296875,-42.271942138671875,2023-09-09 21:47:53.7830,1694314073.783201,0.019936075434088707,0.03246573358774185,0.02997618541121483,-0.037460312247276306,0.453338623046875,-0.8908843994140625,
1,2023-09-09 21:47:46.8590,02:58,10,1,2023-09-09 21:47:54.2610,1694314074.2606149,0.002377403900027275,-0.006701844744384289,-0.002633067313581705,0.052490234375,-0.0413818359375,-0.9985504150390625,106.92127990722656,-25.09063720703125,-42.20257568359375,2023-09-09 21:47:53.8830,1694314073.883065,-0.01893502287566662,0.020219188183546066,0.029781708493828773,-0.0497741661965847,0.449127197265625,-0.876495361328125,
1,2023-09-09 21:47:46.8590,02:58,10,1,2023-09-09 21:47:54.3610,1694314074.360621,-0.0065468489192426205,-0.004387557972222567,-0.004114849958568811,0.053924560546875,-0.042938232421875,-1.0012359619140625,106.90921020507812,-25.215988159179688,-42.00709533691406,2023-09-09 21:47:53.9830,1694314073.9829822,0.04022383689880371,-0.039990223944187164,-0.015629282221198082,-0.011489860713481903,0.4508819282054901,-0.888092041015625,
1,2023-09-09 21:47:46.8590,02:58,10,1,2023-09-09 21:47:54.4620,1694314074.462249,-0.0008420915110036731,-0.006581736262887716,-0.0023965786676853895,0.0525054931640625,-0.04296875,-0.999053955078125,107.0194091796875,-25.579757690429688,-42.03721618652344,2023-09-09 21:47:54.0830,1694314074.082705,0.3244890570640564,-0.025516878813505173,-0.03684598580002785,-0.027984607964754105,0.440887451171875,-0.8935242295265198,
1,2023-09-09 21:47:46.8590,02:58,10,1,2023-09-09 21:47:54.5620,1694314074.561895,7.723167072981596e-05,-0.0033891387283802032,-0.0013829795643687248,0.053955078125,-0.041839599609375,-1.000091552734375,106.86151123046875,-25.335693359375,-42.21290588378906,2023-09-09 21:47:54.1830,1694314074.182574,0.06545629352331161,0.0009522815234959126,-0.023310936987400055,-0.06646726652979851,0.4670867621898651,-0.8987884521484375,
1,2023-09-09 21:47:46.8590,02:58,10,1,2023-09-09 21:47:54.6610,1694314074.660872,-0.001323857344686985,-0.0034224283881485462,-2.5300030756625347e-05,0.0537261962890625,-0.0411224365234375,-0.99859619140625,107.03219604492188,-25.438751220703125,-42.10832214355469,2023-09-09 21:47:54.2830,1694314074.282514,0.2866966724395752,0.1985926628112793,0.085976742208004,-0.022964466363191605,0.3954620063304901,-0.907958984375,
1,2023-09-09 21:47:46.8590,02:58,10,1,2023-09-09 21:47:54.7620,1694314074.762109,-0.00021891183860134333,-0.0054972972720861435,-0.000996554852463305,0.053131103515625,-0.0412750244140625,-0.99774169921875,107.03340148925781,-25.848114013671875,-41.33030700683594,2023-09-09 21:47:54.3820,1694314074.3822432,-0.11430488526821136,0.07914921641349792,0.09410527348518372,-0.02755736466497183,0.467193603515625,-0.904144287109375,
1,2023-09-09 21:47:46.8590,02:58,10,1,2023-09-09 21:47:54.8600,1694314074.860142,-0.0014945659786462784,-0.003394465195015073,-0.0030858046375215054,0.052978515625,-0.0413360595703125,-0.998748779296875,107.15972900390625,-25.852371215820312,-41.129730224609375,2023-09-09 21:47:54.4820,1694314074.481944,0.25235652923583984,0.09073862433433533,0.03594685718417168,-0.04817198682576418,0.4037933051586151,-0.908233642578125,
1,2023-09-09 21:47:46.8590,02:58,10,1,2023-09-09 21:47:54.9610,1694314074.961125,-0.001719869440421462,-0.004211789462715387,-0.004456533584743738,0.052703857421875,-0.04296875,-1.0,107.15972900390625,-25.852371215820312,-41.129730224609375,2023-09-09 21:47:54.5820,1694314074.5817928,0.24401319026947021,0.05365823954343796,0.05982606112957001,-0.006957992911338806,0.3634795844554901,-0.9117279052734375,
1,2023-09-09 21:47:46.8590,02:58,10,1,2023-09-09 21:47:55.0600,1694314075.060206,-0.004698881413787603,-0.006886135786771774,-0.0013978932984173298,0.0539093017578125,-0.0428009033203125,-0.9986419677734375,107.09465026855469,-25.548171997070312,-41.562164306640625,2023-09-09 21:47:54.6820,1694314074.681785,0.01908905804157257,0.04876241460442543,0.06480800360441208,-0.0017700176977086812,0.3653716742992401,-0.91583251953125,
1,2023-09-09 21:47:46.8590,02:58,10,1,2023-09-09 21:47:55.1610,1694314075.161454,-0.00041864890954457223,-0.0032088428270071745,-0.003163569141179323,0.05377197265625,-0.0425872802734375,-0.99951171875,107.16461181640625,-25.6981201171875,-41.595550537109375,2023-09-09 21:47:54.7820,1694314074.781598,0.1068444773554802,0.032842036336660385,0.07011714577674866,0.003524795174598694,0.330047607421875,-0.92376708984375,
1,2023-09-09 21:47:46.8590,02:58,10,1,2023-09-09 21:47:55.2610,1694314075.261312,-0.002043976215645671,-0.004040281753987074,-0.004032558295875788,0.053009033203125,-0.041839599609375,-0.99896240234375,107.06689453125,-25.508056640625,-41.66493225097656,2023-09-09 21:47:54.8810,1694314074.881464,-0.009839662350714207,-0.03831363096833229,0.053543031215667725,0.005020160228013992,0.2971190810203552,-0.9142608046531677,
1,2023-09-09 21:47:46.8590,02:58,10,1,2023-09-09 21:47:55.3610,1694314075.3606958,-0.0017771273851394653,-0.005044293589890003,-0.0025595640763640404,0.052947998046875,-0.0413055419921875,-0.9981842041015625,107.0635986328125,-25.673828125,-41.91168212890625,2023-09-09 21:47:54.9810,1694314074.981349,-0.012990781106054783,0.13336877524852753,0.08376608043909073,0.053482068702578545,0.3604583442211151,-0.9223480820655823,
1,2023-09-09 21:47:46.8590,02:58,10,1,2023-09-09 21:47:55.4620,1694314075.4622688,-0.0008269115351140499,-0.004355333745479584,-0.002752909669652581,0.0535736083984375,-0.0412139892578125,-0.9982147216796875,107.00868225097656,-25.492935180664062,-41.83125305175781,2023-09-09 21:47:55.0810,1694314075.0811648,0.11810871958732605,-0.0775611624121666,-0.09633780270814896,0.04045106843113899,0.2834319770336151,-0.9171142578125,
1,2023-09-09 21:47:46.8590,02:58,10,1,2023-09-09 21:47:55.5610,1694314075.561291,0.001264735241420567,-0.004010987002402544,-0.002971821464598179,0.052947998046875,-0.04150390625,-0.9983978271484375,107.10932922363281,-25.681167602539062,-41.66001892089844,2023-09-09 21:47:55.1810,1694314075.181059,0.10926622152328491,-0.01204714085906744,-0.0076632010750472546,0.04226686619222164,0.3308105170726776,-0.9371337890625,
1,2023-09-09 21:47:46.8590,02:58,10,1,2023-09-09 21:47:55.6600,1694314075.659647,-0.0014397049089893699,-0.0027601001784205437,-0.0036914076190441847,0.0528717041015625,-0.042938232421875,-0.998077392578125,107.071044921875,-25.40673828125,-41.7049560546875,2023-09-09 21:47:55.2810,1694314075.280889,0.10765926539897919,-0.03986785188317299,-0.02891615778207779,-0.003646835684776306,0.3587493598461151,-0.932464599609375,
1,2023-09-09 21:47:46.8590,02:58,10,1,2023-09-09 21:47:55.7620,1694314075.7621331,-0.001002680161036551,-0.002811499172821641,-0.004027764778584242,0.0530548095703125,-0.042510986328125,-0.9987640380859375,107.19639587402344,-25.807388305664062,-41.782318115234375,2023-09-09 21:47:55.3810,1694314075.38064,-0.0106356805190444,-0.002060818485915661,0.012018891051411629,0.010009785182774067,0.3484344184398651,-0.9400177001953125,
1,2023-09-09 21:47:46.8590,02:58,10,1,2023-09-09 21:47:55.8620,1694314075.861671,-0.004323109518736601,-0.005311941262334585,-0.003355050226673484,0.0535888671875,-0.042236328125,-0.9982757568359375,107.32565307617188,-26.125518798828125,-40.78515625,2023-09-09 21:47:55.4810,1694314075.4805489,-0.02484644204378128,0.055003002285957336,0.019019609317183495,-0.0016479268670082092,0.3211669623851776,-0.94146728515625,
1,2023-09-09 21:47:46.8590,02:58,10,1,2023-09-09 21:47:55.9620,1694314075.962126,-0.004041080828756094,-0.005134308245033026,-0.002397643867880106,0.052490234375,-0.0419158935546875,-0.998321533203125,107.24003601074219,-25.955795288085938,-40.95100402832031,2023-09-09 21:47:55.5800,1694314075.580322,-0.041661374270915985,0.002193847671151161,-0.01720537431538105,0.017257707193493843,0.2992553412914276,-0.94012451171875,
1,2023-09-09 21:47:46.8590,02:58,10,1,2023-09-09 21:47:56.0620,1694314076.061502,0.0004972121678292751,-0.0032642364967614412,-0.003213636577129364,0.05267333984375,-0.042266845703125,-0.999053955078125,107.33717346191406,-25.97515869140625,-40.884490966796875,2023-09-09 21:47:55.6800,1694314075.680162,-0.03975621610879898,0.0025822697207331657,-0.008247531950473785,0.019836444407701492,0.3138275146484375,-0.9438629150390625,
1,2023-09-09 21:47:46.8590,02:58,10,1,2023-09-09 21:47:56.1610,1694314076.160544,-0.002424541860818863,-0.0008103998843580484,-0.003456516657024622,0.0535430908203125,-0.0419769287109375,-0.9980621337890625,107.17654418945312,-25.810897827148438,-40.912445068359375,2023-09-09 21:47:55.7800,1694314075.779944,-0.07564830034971237,-0.002393580973148346,-0.003744991961866617,0.032806411385536194,0.3291778266429901,-0.9353179931640625,
1,2023-09-09 21:47:46.8590,02:58,10,1,2023-09-09 21:47:56.2610,1694314076.260855,7.243797881528735e-05,-0.003905792022123933,-0.00221974472515285,0.05267333984375,-0.041534423828125,-0.99993896484375,107.28567504882812,-25.699234008789062,-40.974029541015625,2023-09-09 21:47:55.8800,1694314075.879952,-0.0008274586871266365,0.05226833373308182,0.08787673711776733,-0.01739499531686306,0.3730163276195526,-0.9385528564453125,
1,2023-09-09 21:47:46.8590,02:58,10,1,2023-09-09 21:47:56.3600,1694314076.359832,0.0014423680258914828,-0.00902465358376503,-0.005104747135192156,0.0535888671875,-0.0420989990234375,-0.9982452392578125,107.31814575195312,-25.963058471679688,-41.017120361328125,2023-09-09 21:47:55.9800,1694314075.979704,-0.12488961219787598,0.08771553635597229,-0.010583191178739071,0.045104989781975746,0.3626403510570526,-0.948822021484375,
1,2023-09-09 21:47:46.8590,02:58,10,1,2023-09-09 21:47:56.4600,1694314076.460432,-0.0014122743159532547,-0.0043593281880021095,-0.002567020943388343,0.0531005859375,-0.04132080078125,-0.9989776611328125,107.30703735351562,-25.754501342773438,-40.913787841796875,2023-09-09 21:47:56.0800,1694314076.079525,-0.01633424684405327,0.009315540082752705,0.004000745248049498,0.0290374793112278,0.3323974609375,-0.9202880859375,
1,2023-09-09 21:47:46.8590,02:58,10,1,2023-09-09 21:47:56.5610,1694314076.5606232,-0.0030722226947546005,-0.002980609890073538,-0.003221093211323023,0.0530242919921875,-0.0417022705078125,-0.99822998046875,107.24885559082031,-25.950592041015625,-40.97837829589844,2023-09-09 21:47:56.1790,1694314076.179415,-0.016044694930315018,-0.0766836628317833,-0.026213517412543297,0.022232066839933395,0.3874969482421875,-0.9206085205078125,
1,2023-09-09 21:47:46.8590,02:58,10,1,2023-09-09 21:47:56.6620,1694314076.661658,-0.0006572681595571339,-0.0032706281635910273,-0.0029830066487193108,0.0529632568359375,-0.041259765625,-0.9983978271484375,107.21682739257812,-25.873214721679688,-41.1138916015625,2023-09-09 21:47:56.2790,1694314076.2791681,-0.06405629962682724,-0.018671754747629166,-0.00032872246811166406,0.00851440615952015,0.3839263617992401,-0.916290283203125,
1,2023-09-09 21:47:46.8590,02:58,10,1,2023-09-09 21:47:56.7730,1694314076.773134,-0.0005307680112309754,-0.007568703964352608,-0.005481051746755838,0.0535736083984375,-0.0416107177734375,-0.999481201171875,107.2838134765625,-25.903030395507812,-40.538177490234375,2023-09-09 21:47:56.3790,1694314076.379061,-0.21295176446437836,0.015330955386161804,0.02787362039089203,0.0018310733139514923,0.3964843451976776,-0.92425537109375,
1,2023-09-09 21:47:46.8590,02:58,10,1,2023-09-09 21:47:56.8600,1694314076.859767,-0.0026285399217158556,-0.0052261874079704285,-0.0005454153870232403,0.052886962890625,-0.0416717529296875,-0.9990234375,107.24775695800781,-26.065353393554688,-40.90422058105469,2023-09-09 21:47:56.4790,1694314076.478948,-0.19082775712013245,0.06247170269489288,0.04704581946134567,0.016418462619185448,0.391204833984375,-0.9149932861328125,
1,2023-09-09 21:47:46.8590,02:58,10,1,2023-09-09 21:47:56.9610,1694314076.9609761,-0.0019497001776471734,-0.00384453940205276,-0.0017720673931762576,0.053375244140625,-0.0420379638671875,-0.9989013671875,107.20210266113281,-25.919601440429688,-40.71138000488281,2023-09-09 21:47:56.5790,1694314076.578747,0.09694617241621017,0.06223135069012642,0.05307364836335182,0.021041883155703545,0.4552306532859802,-0.8986205458641052,
1,2023-09-09 21:47:46.8590,02:58,10,1,2023-09-09 21:47:57.0620,1694314077.062018,-0.0014061490073800087,-0.006655772216618061,-0.003385676769539714,0.0525665283203125,-0.041900634765625,-0.9984893798828125,107.3160400390625,-25.812530517578125,-40.80235290527344,2023-09-09 21:47:56.6790,1694314076.678516,-0.08350356668233871,0.07680909335613251,0.0005018176743760705,0.049804698675870895,0.4513091742992401,-0.898956298828125,
1,2023-09-09 21:47:46.8590,02:58,10,1,2023-09-09 21:47:57.1600,1694314077.159971,-0.0025001754984259605,-0.004172374494373798,-0.0032352081034332514,0.052764892578125,-0.04156494140625,-0.9983978271484375,107.32246398925781,-25.883621215820312,-41.21037292480469,2023-09-09 21:47:56.7790,1694314076.778537,-0.11008357256650925,0.06925676763057709,0.008537672460079193,0.054962169378995895,0.3798370361328125,-0.90362548828125,
1,2023-09-09 21:47:46.8590,02:58,10,1,2023-09-09 21:47:57.2600,1694314077.259513,-0.003026149934157729,-0.004454403184354305,-0.0025012409314513206,0.0533447265625,-0.042877197265625,-0.997467041015625,107.27822875976562,-25.695343017578125,-40.63262939453125,2023-09-09 21:47:56.8780,1694314076.878263,0.054174672812223434,-0.03547004237771034,0.006606448441743851,0.0703430213034153,0.4213561713695526,-0.8984833359718323,
1,2023-09-09 21:47:46.8590,02:58,10,1,2023-09-09 21:47:57.3610,1694314077.360681,0.002694586291909218,-0.001975799212232232,-0.002755839144811034,0.0529327392578125,-0.043365478515625,-0.9981231689453125,107.30970764160156,-25.708328247070312,-41.207855224609375,2023-09-09 21:47:56.9780,1694314076.978071,-0.003645682241767645,-0.008506200276315212,0.004465633537620306,0.04283143952488899,0.3926086127758026,-0.9136962890625,
1,2023-09-09 21:47:46.8590,02:58,10,1,2023-09-09 21:47:57.4610,1694314077.46072,0.0003020024741999805,-0.004938832018524408,-0.001341700553894043,0.05401611328125,-0.0420684814453125,-0.9983673095703125,107.22749328613281,-25.785293579101562,-40.83735656738281,2023-09-09 21:47:57.0780,1694314077.07799,-0.11825548112392426,-0.02423882484436035,0.01949378475546837,0.0776062160730362,0.4041137397289276,-0.8786163330078125,
1,2023-09-09 21:47:46.8590,02:58,10,1,2023-09-09 21:47:57.5620,1694314077.562078,-0.0008045409340411425,-0.00640863087028265,-0.0033430662006139755,0.053131103515625,-0.0417022705078125,-0.99847412109375,107.22808837890625,-26.001739501953125,-40.57496643066406,2023-09-09 21:47:57.1780,1694314077.177724,-0.12399706989526749,0.038823630660772324,0.1131804957985878,0.033325210213661194,0.4122161567211151,-0.8955535888671875,
1,2023-09-09 21:47:46.8590,02:58,10,1,2023-09-09 21:47:57.6620,1694314077.66221,0.00037523938226513565,-0.005407282151281834,-4.474110755836591e-05,0.0526123046875,-0.042205810546875,-0.9983367919921875,107.36839294433594,-26.135711669921875,-40.802154541015625,2023-09-09 21:47:57.2780,1694314077.277797,0.10764522105455399,-0.07038168609142303,0.16236482560634613,-0.0401153601706028,0.5011749267578125,-0.853729248046875,
1,2023-09-09 21:47:46.8590,02:58,10,1,2023-09-09 21:47:57.7620,1694314077.761887,0.0005390237784013152,-0.0049135321751236916,-0.003650128608569503,0.0534515380859375,-0.0421905517578125,-0.9990234375,107.3291015625,-26.0030517578125,-40.830718994140625,2023-09-09 21:47:57.3780,1694314077.377514,0.0047687082551419735,-0.09252946078777313,0.005824444815516472,-0.002685531973838806,0.5400695204734802,-0.882720947265625,
1,2023-09-09 21:47:46.8590,02:58,10,1,2023-09-09 21:47:57.8630,1694314077.862544,-0.00034887410583905876,-0.005511678289622068,-0.004740959499031305,0.053314208984375,-0.0425872802734375,-0.9982757568359375,107.28324890136719,-25.972259521484375,-41.06639099121094,2023-09-09 21:47:57.4770,1694314077.477186,-0.0877465158700943,-0.13235662877559662,0.055130042135715485,0.020309455692768097,0.5220794677734375,-0.8333587646484375,
1,2023-09-09 21:47:46.8590,02:58,10,1,2023-09-09 21:47:57.9610,1694314077.9614,-0.0013712616637349129,-0.002811232814565301,-0.004056526813656092,0.05316162109375,-0.04205322265625,-0.9993896484375,107.36758422851562,-26.298110961914062,-40.41069030761719,2023-09-09 21:47:57.5770,1694314077.5771508,-0.22994840145111084,0.0015268591232597828,-0.01397619117051363,0.04675295203924179,0.5070953369140625,-0.873321533203125,
1,2023-09-09 21:47:46.8590,02:58,10,1,2023-09-09 21:47:58.0620,1694314078.061561,-0.0009435579413548112,-0.0052197957411408424,-0.002246642718091607,0.052642822265625,-0.04132080078125,-0.9988555908203125,107.34768676757812,-26.353790283203125,-40.58787536621094,2023-09-09 21:47:57.6770,1694314077.677013,-0.40632107853889465,0.05887816473841667,0.05885450541973114,0.03135683014988899,0.5205841064453125,-0.84942626953125,
1,2023-09-09 21:47:46.8590,02:58,10,1,2023-09-09 21:47:58.1620,1694314078.1620588,-0.0005749764968641102,-0.005375324282795191,-0.002555303042754531,0.0527191162109375,-0.0420379638671875,-0.99859619140625,107.19651794433594,-25.842361450195312,-40.85911560058594,2023-09-09 21:47:57.7770,1694314077.776814,-0.1142251268029213,-0.04206189513206482,0.05059128254652023,0.02728271484375,0.64776611328125,-0.7535247802734375,
1,2023-09-09 21:47:46.8590,02:58,10,1,2023-09-09 21:47:58.2620,1694314078.2619529,-0.0012090750969946384,-0.0032583775464445353,-0.003596332622691989,0.053192138671875,-0.0418548583984375,-0.999298095703125,107.27761840820312,-26.012863159179688,-40.60420227050781,2023-09-09 21:47:57.8770,1694314077.8766298,-0.32486358284950256,0.001504222396761179,-0.07920399308204651,0.0869903713464737,0.6034393310546875,-0.7700653672218323,
1,2023-09-09 21:47:46.8590,02:58,10,1,2023-09-09 21:47:58.3610,1694314078.360835,-0.0021869877818971872,-0.0032775523141026497,-0.0034642398823052645,0.0529022216796875,-0.0426177978515625,-0.9989166259765625,107.20703125,-25.813262939453125,-40.208953857421875,2023-09-09 21:47:57.9770,1694314077.976531,-0.046284355223178864,-0.06679507344961166,-0.2525116205215454,0.0326232835650444,0.722442626953125,-0.73504638671875,
1,2023-09-09 21:47:46.8590,02:58,10,1,2023-09-09 21:47:58.4620,1694314078.4622731,-0.00301762786693871,-0.0038424087688326836,-0.00395852280780673,0.053253173828125,-0.042388916015625,-0.9996337890625,107.46467590332031,-26.14190673828125,-40.693267822265625,2023-09-09 21:47:58.0760,1694314078.076377,0.652572751045227,0.048091962933540344,-0.3035866320133209,0.03359985910356045,0.73291015625,-0.85565185546875,
1,2023-09-09 21:47:46.8590,02:58,10,1,2023-09-09 21:47:58.5620,1694314078.562129,0.0003347593592479825,-0.005510612856596708,-0.004565456882119179,0.05316162109375,-0.041839599609375,-0.99920654296875,107.31307983398438,-25.917892456054688,-40.706146240234375,2023-09-09 21:47:58.1760,1694314078.17621,0.45756128430366516,-0.191666841506958,-0.5887057781219482,-0.020721416920423508,0.5997466444969177,-0.851959228515625,
1,2023-09-09 21:47:46.8590,02:58,10,1,2023-09-09 21:47:58.6600,1694314078.6598449,-0.0028634308837354183,-0.002728408435359597,-0.002734533743932843,0.052886962890625,-0.0422210693359375,-0.9989013671875,107.28289794921875,-26.011810302734375,-40.71653747558594,2023-09-09 21:47:58.2760,1694314078.276206,-0.36655792593955994,-0.16682672500610352,-0.34744885563850403,-0.1145629808306694,0.6396026611328125,-0.84283447265625,
1,2023-09-09 21:47:46.8590,02:58,10,1,2023-09-09 21:47:58.7620,1694314078.761647,-0.002627208363264799,-0.002606435678899288,-0.0034756914246827364,0.0528717041015625,-0.0416107177734375,-0.9994354248046875,107.19056701660156,-25.787200927734375,-41.06288146972656,2023-09-09 21:47:58.3760,1694314078.375881,-0.3092350959777832,0.058267101645469666,-0.33331337571144104,0.136138916015625,0.7174072265625,-0.7952117919921875,
1,2023-09-09 21:47:46.8590,02:58,10,1,2023-09-09 21:47:58.8610,1694314078.861463,-0.0011201255256310105,-0.004512459971010685,-0.0026735474821180105,0.053192138671875,-0.0415802001953125,-0.9992523193359375,107.16653442382812,-25.8265380859375,-41.048248291015625,2023-09-09 21:47:58.4760,1694314078.475799,0.33665743470191956,0.2148192971944809,-0.4024430811405182,-0.2179870456457138,0.7788237929344177,-0.7499083876609802,
1,2023-09-09 21:47:46.8590,02:58,10,1,2023-09-09 21:47:58.9620,1694314078.962358,-0.0010351707460358739,-0.00592659879475832,-0.005056011490523815,0.052947998046875,-0.0431060791015625,-0.9984283447265625,107.31211853027344,-25.938796997070312,-40.728271484375,2023-09-09 21:47:58.5760,1694314078.575632,-0.040998250246047974,0.05038987100124359,-0.3319362699985504,-0.1895446702837944,0.5168456435203552,-0.6325531601905823,
1,2023-09-09 21:47:46.8590,02:58,10,1,2023-09-09 21:47:59.0620,1694314079.062121,-0.001002413802780211,-0.005043494515120983,-0.002546248259022832,0.053009033203125,-0.0419158935546875,-0.998626708984375,107.3111572265625,-25.981430053710938,-40.6846923828125,2023-09-09 21:47:58.6750,1694314078.675498,-0.5271921753883362,-0.5985837578773499,-0.20989090204238892,-0.0694427490234375,0.5445556640625,-0.7300111055374146,
1,2023-09-09 21:47:46.8590,02:58,10,1,2023-09-09 21:47:59.1600,1694314079.160297,0.0008077367674559355,-0.0062573631294071674,-0.0006844323943369091,0.052978515625,-0.042266845703125,-0.9990997314453125,107.33250427246094,-26.05377197265625,-40.81927490234375,2023-09-09 21:47:58.7750,1694314078.775182,-4.555279731750488,0.5774792432785034,2.3311541080474854,0.139404296875,0.7171630263328552,-0.4044188857078552,
1,2023-09-09 21:47:46.8590,02:58,10,1,2023-09-09 21:47:59.2620,1694314079.261831,-0.0016559535870328546,-0.002159290947020054,-0.0016389093361794949,0.0527801513671875,-0.042266845703125,-0.997528076171875,107.27705383300781,-26.033248901367188,-40.94671630859375,2023-09-09 21:47:58.8750,1694314078.8750439,2.1766932010650635,-0.32894307374954224,0.7952626943588257,0.0878753662109375,0.609207034111023,-0.5045166015625,
1,2023-09-09 21:47:46.8590,02:58,10,1,2023-09-09 21:47:59.3620,1694314079.3617969,-0.0009827064350247383,-0.003335076617076993,-0.0007659250986762345,0.0525970458984375,-0.0424957275390625,-0.9985504150390625,107.31039428710938,-25.949264526367188,-40.8919677734375,2023-09-09 21:47:58.9750,1694314078.9749532,-0.9049420356750488,-0.33620375394821167,-0.03078286722302437,0.1425781287252903,0.9053955078125,-0.463623046875,
1,2023-09-09 21:47:46.8590,02:58,10,1,2023-09-09 21:47:59.4620,1694314079.4618402,-0.0008655273704789579,-0.004840828012675047,-0.003207511268556118,0.0523223876953125,-0.0423431396484375,-0.9976043701171875,107.29623413085938,-25.936569213867188,-40.706817626953125,2023-09-09 21:47:59.0750,1694314079.074757,-0.9813306927680969,0.46475139260292053,0.5869643092155457,0.09617616981267929,0.91168212890625,-0.612060546875,
1,2023-09-09 21:47:46.8590,02:58,10,1,2023-09-09 21:47:59.5600,1694314079.559619,-0.0005187837523408234,-0.004781439434736967,-0.0009326389990746975,0.052734375,-0.0413360595703125,-0.9991912841796875,107.46315002441406,-26.162246704101562,-40.570159912109375,2023-09-09 21:47:59.1750,1694314079.174652,-0.2523247301578522,0.22882060706615448,0.16594068706035614,0.1330414116382599,0.8632354140281677,-0.264312744140625,
1,2023-09-09 21:47:46.8590,02:58,10,1,2023-09-09 21:47:59.6620,1694314079.661809,-0.004564924165606499,-0.004025368019938469,-0.002487925114110112,0.0526885986328125,-0.0421142578125,-0.999114990234375,107.30903625488281,-25.793121337890625,-40.776153564453125,2023-09-09 21:47:59.2750,1694314079.27451,0.3948705494403839,-0.15498991310596466,0.4846298396587372,0.15226749330759048,0.786346435546875,-0.4061584770679474,
1,2023-09-09 21:47:46.8590,02:58,10,1,2023-09-09 21:47:59.7620,1694314079.761664,-0.002141447737812996,-0.0038951393216848373,-0.0015819176333025098,0.053253173828125,-0.0413970947265625,-0.9983673095703125,107.18858337402344,-25.764755249023438,-41.0035400390625,2023-09-09 21:47:59.3740,1694314079.3743129,0.9818541407585144,-0.8228782415390015,0.13121239840984344,0.1226196214556694,0.852737307548523,-0.4424590766429901,
1,2023-09-09 21:47:46.8590,02:58,10,1,2023-09-09 21:47:59.8620,1694314079.8615708,-0.0025124261155724525,-0.0029265477787703276,-0.003207244910299778,0.0531158447265625,-0.0415802001953125,-0.9985809326171875,107.18168640136719,-25.582229614257812,-41.10076904296875,2023-09-09 21:47:59.4740,1694314079.474113,-0.641802191734314,0.18005385994911194,0.24500539898872375,-0.025512687861919403,0.5972594618797302,-0.5816955268383026,
1,2023-09-09 21:47:46.8590,02:58,10,1,2023-09-09 21:47:59.9620,1694314079.9617949,-0.0022684806026518345,-0.004190217703580856,-0.005468268413096666,0.0530548095703125,-0.0419921875,-0.9994659423828125,107.25131225585938,-26.068832397460938,-41.04151916503906,2023-09-09 21:47:59.5740,1694314079.574101,-0.10131771117448807,-0.3766545355319977,-0.16388286650180817,0.0589599534869194,0.89801025390625,-0.3761444091796875,
1,2023-09-09 21:47:46.8590,02:58,10,1,2023-09-09 21:48:00.0620,1694314080.06173,-0.0014554174849763513,-0.003948136232793331,-0.001894839107990265,0.05328369140625,-0.0424957275390625,-0.9986114501953125,107.30259704589844,-25.898300170898438,-41.01737976074219,2023-09-09 21:47:59.6740,1694314079.6738129,-0.19443348050117493,-0.05923915281891823,-0.13024385273456573,0.0845794752240181,1.1026458740234375,-0.3735656440258026,
1,2023-09-09 21:47:46.8590,02:58,10,1,2023-09-09 21:48:00.1600,1694314080.159939,0.001157143502496183,-0.004427771549671888,-0.0018722022650763392,0.0532989501953125,-0.04180908203125,-0.9995269775390625,107.20108032226562,-25.932022094726562,-40.989654541015625,2023-09-09 21:47:59.7740,1694314079.7735438,-0.14329957962036133,0.1324453353881836,0.19686271250247955,0.0003051832318305969,0.8894500136375427,-0.5207518935203552,
1,2023-09-09 21:47:46.8590,02:58,10,1,2023-09-09 21:48:00.2610,1694314080.260617,-0.00047351003740914166,-0.005534315016120672,-0.003352653468027711,0.0528564453125,-0.041839599609375,-0.998779296875,107.27056884765625,-25.92950439453125,-40.868011474609375,2023-09-09 21:47:59.8740,1694314079.873637,-0.7199512720108032,0.44830673933029175,0.34119048714637756,-0.0103759765625,1.0197296738624573,-0.3735809624195099,
1,2023-09-09 21:47:46.8590,02:58,10,1,2023-09-09 21:48:00.3620,1694314080.361629,-0.0032919333316385746,-0.0043625240214169025,-0.003041330026462674,0.0525054931640625,-0.0421295166015625,-0.999725341796875,107.31202697753906,-25.994003295898438,-41.22190856933594,2023-09-09 21:47:59.9830,1694314079.982864,0.17799794673919678,-0.1334754377603531,-0.007923558354377747,0.1985015571117401,0.9715728163719177,-0.2845916748046875,
1,2023-09-09 21:47:46.8590,02:58,10,1,2023-09-09 21:48:00.4590,1694314080.459333,-0.0022205437999218702,-0.005630188621580601,-0.0029912625905126333,0.052703857421875,-0.0421142578125,-0.9986572265625,107.26173400878906,-26.009490966796875,-41.11488342285156,2023-09-09 21:48:00.0730,1694314080.073281,0.1713685393333435,0.7934417724609375,-0.35955190658569336,-0.01373291015625,0.9750213027000427,-0.2940826117992401,
1,2023-09-09 21:47:46.8590,02:58,10,1,2023-09-09 21:48:00.5600,1694314080.560296,-0.0007137271459214389,-0.005835252348333597,-0.0013227921444922686,0.053192138671875,-0.0430450439453125,-0.9986419677734375,107.07316589355469,-25.93255615234375,-41.02610778808594,2023-09-09 21:48:00.1730,1694314080.173006,-0.2016233503818512,-0.1614113301038742,-0.08519347757101059,0.2292022928595543,0.8941038846969604,-0.3197479248046875,
1,2023-09-09 21:47:46.8590,02:58,10,1,2023-09-09 21:48:00.6610,1694314080.661428,0.0027808728627860546,-0.0016618125373497605,-0.003346528159454465,0.0529632568359375,-0.042816162109375,-0.9987335205078125,107.27445983886719,-26.010528564453125,-40.7528076171875,2023-09-09 21:48:00.2730,1694314080.272769,-0.40594327449798584,0.1909812092781067,0.04083346202969551,0.0485534742474556,1.0051268935203552,-0.3274841606616974,
1,2023-09-09 21:47:46.8590,02:58,10,1,2023-09-09 21:48:00.7620,1694314080.7618508,-0.0007845672662369907,-0.0030043120495975018,-0.0023992417845875025,0.0529327392578125,-0.042266845703125,-0.9986572265625,107.20985412597656,-26.063812255859375,-40.79534912109375,2023-09-09 21:48:00.3730,1694314080.372758,-0.012979995459318161,0.09772156924009323,0.011741089634597301,0.016235359013080597,1.0058441162109375,-0.3275299072265625,
1,2023-09-09 21:47:46.8590,02:58,10,1,2023-09-09 21:48:00.8600,1694314080.859857,-0.0015038870042189956,-0.003826429834589362,-0.0033398703671991825,0.0525970458984375,-0.041534423828125,-0.9990997314453125,107.28359985351562,-26.16973876953125,-40.6556396484375,2023-09-09 21:48:00.4730,1694314080.472527,0.4988744258880615,-0.12078933417797089,-0.5022465586662292,0.10093691945075989,0.878250241279602,-0.27766427397727966,
1,2023-09-09 21:47:46.8590,02:58,10,1,2023-09-09 21:48:00.9620,1694314080.9616761,-0.002296443795785308,-0.00404614070430398,-0.003689543344080448,0.0526123046875,-0.0415496826171875,-0.9995880126953125,107.43067932128906,-26.0777587890625,-40.77630615234375,2023-09-09 21:48:00.5720,1694314080.572397,-0.23778340220451355,-0.021022658795118332,-0.016168370842933655,0.0994720458984375,0.9329986572265625,-0.3028411865234375,
1,2023-09-09 21:47:46.8590,02:58,10,1,2023-09-09 21:48:01.0620,1694314081.062115,-0.0025300029665231705,-0.0007829693495295942,-0.002088450826704502,0.052581787109375,-0.042388916015625,-0.9989776611328125,107.05354309082031,-25.797576904296875,-40.90913391113281,2023-09-09 21:48:00.6720,1694314080.6723099,-0.026835422962903976,0.11176028847694397,-0.027287635952234268,0.05023193359375,1.11669921875,-0.2031250298023224,
1,2023-09-09 21:47:46.8590,02:58,10,1,2023-09-09 21:48:01.1590,1694314081.159415,-0.002257561543956399,-0.0038189729675650597,-0.0022714100778102875,0.052490234375,-0.04193115234375,-0.998626708984375,107.31697082519531,-26.02685546875,-40.286590576171875,2023-09-09 21:48:00.7720,1694314080.771995,0.2257886379957199,-0.12072660773992538,0.016287239268422127,0.1352386549115181,0.8830414414405823,-0.2653198540210724,
1,2023-09-09 21:47:46.8590,02:58,10,1,2023-09-09 21:48:01.2710,1694314081.270807,-0.003881557146087289,-0.0026072347536683083,-0.0022072279825806618,0.052520751953125,-0.0426177978515625,-0.998809814453125,107.25752258300781,-26.066940307617188,-40.42268371582031,2023-09-09 21:48:00.8720,1694314080.8718681,0.22469155490398407,-0.060375653207302094,-0.0012582654599100351,0.049011215567588806,1.0063170790672302,-0.3024291694164276,
1,2023-09-09 21:47:46.8590,02:58,10,1,2023-09-09 21:48:01.3600,1694314081.360283,-0.0027017768006771803,-0.0035230957437306643,-0.002549710450693965,0.052947998046875,-0.042633056640625,-0.9991912841796875,107.39656066894531,-26.074935913085938,-40.33441162109375,2023-09-09 21:48:00.9720,1694314080.971741,-0.09889383614063263,0.10646259784698486,-0.0042740958742797375,0.04077151417732239,0.9744110107421875,-0.33355712890625,
1,2023-09-09 21:47:46.8590,02:58,10,1,2023-09-09 21:48:01.4610,1694314081.4614182,-0.001136104459874332,-0.004722583573311567,-0.002499110298231244,0.0526885986328125,-0.0417938232421875,-0.9987640380859375,107.26199340820312,-26.049880981445312,-40.56721496582031,2023-09-09 21:48:01.0720,1694314081.0715961,0.14172916114330292,-0.13030999898910522,0.0009989632526412606,0.1278076320886612,0.9140777587890625,-0.3005829155445099,
1,2023-09-09 21:47:46.8590,02:58,10,1,2023-09-09 21:48:01.5620,1694314081.561507,-0.00017443705291952938,-0.004482898861169815,-0.005661081522703171,0.053009033203125,-0.041595458984375,-0.9989776611328125,107.27400207519531,-26.0579833984375,-40.74322509765625,2023-09-09 21:48:01.1720,1694314081.1716251,0.06133924424648285,-0.1225799098610878,0.007300667930394411,0.10153200477361679,0.9793243408203125,-0.312255859375,
1,2023-09-09 21:47:46.8590,02:58,10,1,2023-09-09 21:48:01.6600,1694314081.66042,-0.00315984059125185,-0.004118045791983604,-0.002010686555877328,0.0526580810546875,-0.041595458984375,-0.998046875,107.22598266601562,-25.795486450195312,-41.13749694824219,2023-09-09 21:48:01.2710,1694314081.271371,0.04503810033202171,-0.07278771698474884,0.0152918491512537,0.0986023098230362,0.9741058349609375,-0.3131561577320099,
1,2023-09-09 21:47:46.8590,02:58,10,1,2023-09-09 21:48:01.7620,1694314081.761658,0.0006492786924354732,-0.0059870523400604725,-0.0028533106669783592,0.0529632568359375,-0.0413818359375,-0.9994964599609375,107.32766723632812,-25.697006225585938,-40.803466796875,2023-09-09 21:48:01.3710,1694314081.371138,-0.8917591571807861,0.10447254776954651,-0.15007354319095612,0.06988530606031418,0.9094085693359375,-0.1612243950366974,
1,2023-09-09 21:47:46.8590,02:58,10,1,2023-09-09 21:48:01.8620,1694314081.862265,-0.0023398532066494226,-0.0038032603915780783,-0.005511944647878408,0.052520751953125,-0.04229736328125,-0.9989013671875,107.30804443359375,-25.984970092773438,-40.83293151855469,2023-09-09 21:48:01.4710,1694314081.470953,-0.2762729525566101,0.14302819967269897,-0.009765367023646832,0.052764892578125,0.9972075819969177,-0.3279723823070526,
1,2023-09-09 21:47:46.8590,02:58,10,1,2023-09-09 21:48:01.9620,1694314081.9615998,-0.0006988134700804949,-0.003326554549857974,-0.0041278996504843235,0.0526885986328125,-0.0425262451171875,-0.9982757568359375,107.33781433105469,-26.062896728515625,-41.17826843261719,2023-09-09 21:48:01.5710,1694314081.570734,0.09238437563180923,0.010090253315865993,0.04609273746609688,0.05215451866388321,0.9116363525390625,-0.3103332221508026,
1,2023-09-09 21:47:46.8590,02:58,10,1,2023-09-09 21:48:02.0610,1694314082.060528,0.00016538229829166085,-0.003950532991439104,-0.0018618159228935838,0.0528564453125,-0.0423431396484375,-0.9984130859375,107.29360961914062,-25.820831298828125,-40.84637451171875,2023-09-09 21:48:01.6710,1694314081.670712,-0.1778744012117386,0.15135149657726288,-0.017590032890439034,0.036438003182411194,0.9415892362594604,-0.3190154731273651,
1,2023-09-09 21:47:46.8590,02:58,10,1,2023-09-09 21:48:02.1590,1694314082.1594071,-0.0014767227694392204,-0.005371063016355038,-0.0026088326703757048,0.0533905029296875,-0.042144775390625,-0.9990692138671875,107.24093627929688,-26.12957763671875,-40.47471618652344,2023-09-09 21:48:01.7710,1694314081.770566,-0.0059306747280061245,0.0048378342762589455,-0.031993571668863297,0.0903015285730362,0.8829804062843323,-0.2867583930492401,
1,2023-09-09 21:47:46.8590,02:58,10,1,2023-09-09 21:48:02.2610,1694314082.260974,-0.001806155894882977,-0.004150802735239267,-0.003531884169206023,0.0530548095703125,-0.0424041748046875,-0.998870849609375,107.36991882324219,-26.102325439453125,-40.67913818359375,2023-09-09 21:48:01.8700,1694314081.870255,0.1764732152223587,-0.060424793511629105,-0.019614269956946373,0.07098390907049179,0.971832275390625,-0.299468994140625,
1,2023-09-09 21:47:46.8590,02:58,10,1,2023-09-09 21:48:02.3610,1694314082.3606482,-0.0036844832357019186,-0.001931058126501739,-0.0017757958266884089,0.0532379150390625,-0.0409393310546875,-0.999053955078125,107.34538269042969,-26.205886840820312,-40.530975341796875,2023-09-09 21:48:01.9700,1694314081.970146,-0.12578518688678741,0.043916527181863785,-0.015910079702734947,0.042968787252902985,0.9719696044921875,-0.3435668647289276,
1,2023-09-09 21:47:46.8590,02:58,10,1,2023-09-09 21:48:02.4610,1694314082.460849,-0.0014852449530735612,-0.0035412053111940622,-0.0020479708909988403,0.0529327392578125,-0.0428466796875,-0.998748779296875,107.43159484863281,-26.2269287109375,-40.82286071777344,2023-09-09 21:48:02.0700,1694314082.070014,0.1373455971479416,-0.09379539638757706,-0.011417093686759472,0.1036529615521431,0.9019469618797302,-0.2898559272289276,
1,2023-09-09 21:47:46.8590,02:58,10,1,2023-09-09 21:48:02.5620,1694314082.562186,-0.0019475696608424187,-0.003931092098355293,-0.0011720572365447879,0.0532379150390625,-0.04217529296875,-0.9987030029296875,107.3848876953125,-26.249420166015625,-40.59867858886719,2023-09-09 21:48:02.1700,1694314082.1698298,0.2184716761112213,-0.08190105110406876,0.05303989350795746,0.1223449781537056,0.99578857421875,-0.3681793510913849,
1,2023-09-09 21:47:46.8590,02:58,10,1,2023-09-09 21:48:02.6620,1694314082.661672,-0.0008394283941015601,-0.003224821761250496,-0.004249872639775276,0.0534210205078125,-0.0423126220703125,-0.9996795654296875,107.24110412597656,-25.812103271484375,-41.09800720214844,2023-09-09 21:48:02.2700,1694314082.26966,-0.22213859856128693,0.21860870718955994,0.05737518519163132,0.03868105262517929,0.9211120009422302,-0.3107605278491974,
1,2023-09-09 21:47:46.8590,02:58,10,1,2023-09-09 21:48:02.7610,1694314082.7607079,-0.001156877144239843,-0.00421205535531044,-0.0024975123815238476,0.0527496337890625,-0.0424041748046875,-0.9985198974609375,107.37028503417969,-26.03839111328125,-41.19865417480469,2023-09-09 21:48:02.3690,1694314082.3694701,-0.040324002504348755,0.040525391697883606,0.003044270910322666,0.0691680908203125,0.9396361112594604,-0.3048400580883026,
1,2023-09-09 21:47:46.8590,02:58,10,1,2023-09-09 21:48:02.8610,1694314082.861191,0.001458080718293786,-0.005020325072109699,-0.00446825148537755,0.0526580810546875,-0.0422821044921875,-0.999114990234375,107.40789794921875,-25.725265502929688,-40.69868469238281,2023-09-09 21:48:02.4690,1694314082.469253,0.020838622003793716,-0.07538004219532013,0.022861551493406296,0.1038360595703125,0.9530181884765625,-0.2748107612133026,
1,2023-09-09 21:47:46.8590,02:58,10,1,2023-09-09 21:48:02.9620,1694314082.962029,-0.0023515713401138783,-0.0020130835473537445,-0.0031100395135581493,0.052978515625,-0.0413360595703125,-0.9985809326171875,107.30322265625,-26.00103759765625,-40.555755615234375,2023-09-09 21:48:02.5690,1694314082.569107,-0.14473502337932587,0.037053026258945465,0.03829650208353996,0.0817718356847763,1.0166320204734802,-0.2744598090648651,
1,2023-09-09 21:47:46.8590,02:58,10,1,2023-09-09 21:48:03.0600,1694314083.0604181,-0.0005584649043157697,-0.005330050364136696,-0.0036282907240092754,0.052703857421875,-0.0424346923828125,-0.99884033203125,107.27311706542969,-25.989120483398438,-40.67369079589844,2023-09-09 21:48:02.6690,1694314082.669036,0.08112246543169022,-0.07167505472898483,0.01626383699476719,0.08479313552379608,0.9808959364891052,-0.259674072265625,
1,2023-09-09 21:47:46.8590,02:58,10,1,2023-09-09 21:48:03.1610,1694314083.160595,-0.0008335694437846541,-0.00566933723166585,-0.0013558153295889497,0.0529632568359375,-0.0428009033203125,-0.999542236328125,107.31779479980469,-25.864303588867188,-40.49604797363281,2023-09-09 21:48:02.7690,1694314082.7688708,-0.15560811758041382,0.11463610082864761,0.004432909656316042,0.055007971823215485,0.9688720703125,-0.291168212890625,
1,2023-09-09 21:47:46.8590,02:58,10,1,2023-09-09 21:48:03.2610,1694314083.26096,0.003344397759065032,-0.002814428647980094,-0.0030748858116567135,0.053192138671875,-0.0423431396484375,-0.9982452392578125,107.29905700683594,-25.74053955078125,-41.19453430175781,2023-09-09 21:48:02.8690,1694314082.8686938,-0.014183277264237404,0.026953788474202156,-0.00291917915455997,0.06750493496656418,0.9436492323875427,-0.2824096381664276,
1,2023-09-09 21:47:46.8590,02:58,10,1,2023-09-09 21:48:03.3610,1694314083.361174,0.0016367788193747401,-0.005923136603087187,-0.004484497010707855,0.0517120361328125,-0.04241943359375,-0.9988250732421875,107.19505310058594,-25.636444091796875,-41.03102111816406,2023-09-09 21:48:02.9690,1694314082.9685159,-0.03012143075466156,0.04084736481308937,0.018626559525728226,0.06477352976799011,0.9321746826171875,-0.29461669921875,
1,2023-09-09 21:47:46.8590,02:58,10,1,2023-09-09 21:48:03.4620,1694314083.461689,-0.0009488842915743589,-0.005789978429675102,-0.0020266654901206493,0.052764892578125,-0.0416717529296875,-0.99822998046875,107.26020812988281,-25.861709594726562,-40.876007080078125,2023-09-09 21:48:03.0680,1694314083.068375,-0.010891744866967201,0.07658685743808746,0.017970988526940346,0.0536346510052681,0.9682313203811646,-0.2848511040210724,
1,2023-09-09 21:47:46.8590,02:58,10,1,2023-09-09 21:48:03.5610,1694314083.561411,-0.0002695118892006576,-0.0037505298387259245,-0.0012351741315796971,0.053497314453125,-0.0413055419921875,-0.998138427734375,107.20982360839844,-25.980804443359375,-41.04826354980469,2023-09-09 21:48:03.1680,1694314083.168232,-0.1403018683195114,0.08148587495088577,0.07157226651906967,0.0671539455652237,0.948593258857727,-0.2699432969093323,
1,2023-09-09 21:47:46.8590,02:58,10,1,2023-09-09 21:48:03.6610,1694314083.661258,-0.001100950757972896,-0.0052291168831288815,-0.0008383630774915218,0.0531005859375,-0.0418701171875,-0.9992523193359375,107.14181518554688,-25.596511840820312,-41.027008056640625,2023-09-09 21:48:03.2680,1694314083.268293,0.06383096426725388,-0.05885033309459686,0.0019182530231773853,0.1132354661822319,0.947601318359375,-0.2708587646484375,
1,2023-09-09 21:47:46.8590,02:58,10,1,2023-09-09 21:48:03.7620,1694314083.762429,-0.0018461032304912806,-0.004550809506326914,-0.0030035129748284817,0.0524444580078125,-0.041900634765625,-0.9975128173828125,107.18582153320312,-25.685928344726562,-40.96366882324219,2023-09-09 21:48:03.3680,1694314083.36792,0.09366915374994278,-0.06344002485275269,-0.019613204523921013,0.12663272768259048,0.9899444580078125,-0.2302245795726776,
1,2023-09-09 21:47:46.8590,02:58,10,1,2023-09-09 21:48:03.8620,1694314083.861629,6.870955257909372e-05,-0.0035515916533768177,-0.003931891173124313,0.0531768798828125,-0.0419158935546875,-0.9993743896484375,107.27529907226562,-25.772125244140625,-41.078125,2023-09-09 21:48:03.4680,1694314083.4677448,0.07262532413005829,-0.075408935546875,0.012848897837102413,0.12025454640388489,0.9496002197265625,-0.2316436767578125,
1,2023-09-09 21:47:46.8590,02:58,10,1,2023-09-09 21:48:03.9610,1694314083.9613671,-0.001981658162549138,-0.007071757689118385,-0.002531600883230567,0.0537109375,-0.041595458984375,-0.9990997314453125,107.30201721191406,-25.848480224609375,-40.887054443359375,2023-09-09 21:48:03.5680,1694314083.5675879,0.058735400438308716,-0.01874658837914467,-0.0005413758917711675,0.0987853854894638,0.9625549912452698,-0.2272339165210724,
1,2023-09-09 21:47:46.8590,02:58,10,1,2023-09-09 21:48:04.0620,1694314084.06174,-0.0035294874105602503,-0.005834453273564577,-0.0024945829063653946,0.0531768798828125,-0.04193115234375,-0.998687744140625,107.3116455078125,-25.840927124023438,-40.928070068359375,2023-09-09 21:48:03.6670,1694314083.667398,-0.03180421516299248,0.07140088081359863,-0.003396484535187483,0.059494055807590485,1.0029144287109375,-0.2594451904296875,
1,2023-09-09 21:47:46.8590,02:58,10,1,2023-09-09 21:48:04.1590,1694314084.1591768,-0.00041332258842885494,-0.004333495628088713,-0.004807804711163044,0.053009033203125,-0.042755126953125,-0.998016357421875,107.35873413085938,-25.825241088867188,-40.502105712890625,2023-09-09 21:48:03.7670,1694314083.767239,-0.03838382288813591,0.007550530135631561,-0.022837426513433456,0.1060028001666069,0.9483489990234375,-0.2546387016773224,
1,2023-09-09 21:47:46.8590,02:58,10,1,2023-09-09 21:48:04.2610,1694314084.261209,-0.002290318487212062,-0.005097290500998497,-0.003291400847956538,0.052886962890625,-0.0416259765625,-0.9993133544921875,107.35382080078125,-26.004913330078125,-40.30146789550781,2023-09-09 21:48:03.8670,1694314083.867028,-0.04337465018033981,0.015447201207280159,0.023320114240050316,0.09899904578924179,0.9435425400733948,-0.24952703714370728,
1,2023-09-09 21:47:46.8590,02:58,10,1,2023-09-09 21:48:04.3730,1694314084.372693,-0.002770220162346959,-0.0055803875438869,-0.002995789982378483,0.053192138671875,-0.0414886474609375,-0.9988861083984375,107.22282409667969,-26.012283325195312,-40.446868896484375,2023-09-09 21:48:03.9670,1694314083.967084,-0.055925995111465454,0.021616147831082344,0.01514867041260004,0.09561160951852798,0.9784241914749146,-0.24801641702651978,
1,2023-09-09 21:47:46.8590,02:58,10,1,2023-09-09 21:48:04.4620,1694314084.46159,-0.00046631949953734875,-0.00458702864125371,-0.0036732980515807867,0.052886962890625,-0.04248046875,-0.9991455078125,107.22282409667969,-26.012283325195312,-40.446868896484375,2023-09-09 21:48:04.0670,1694314084.0668302,-0.01921245828270912,0.02344334125518799,-0.018344175070524216,0.0844574049115181,0.9852447509765625,-0.2552490234375,
1,2023-09-09 21:47:46.8590,02:58,10,1,2023-09-09 21:48:04.5620,1694314084.562083,-0.0018221348291262984,-0.006807305850088596,-0.005469067487865686,0.05230712890625,-0.0421295166015625,-0.9990692138671875,107.21879577636719,-25.787078857421875,-41.013519287109375,2023-09-09 21:48:04.1670,1694314084.1665921,-0.009056027047336102,-0.015494336374104023,0.010321457870304585,0.12854007631540298,0.9249267578125,-0.2209930121898651,
1,2023-09-09 21:47:46.8590,02:58,10,1,2023-09-09 21:48:04.6610,1694314084.661109,-0.0033446638844907284,-0.006357231643050909,-0.0021931130904704332,0.0531768798828125,-0.0423583984375,-0.99847412109375,107.26643371582031,-26.178680419921875,-40.89201354980469,2023-09-09 21:48:04.2670,1694314084.266504,0.004611182492226362,-0.052061665803194046,-0.019903888925909996,0.1421203687787056,0.961837649345398,-0.20854181051254272,
1,2023-09-09 21:47:46.8590,02:58,10,1,2023-09-09 21:48:04.7620,1694314084.761683,-0.004351605195552111,-0.0017009610310196877,-0.0028762139845639467,0.05279541015625,-0.04217529296875,-0.998291015625,107.1060791015625,-26.061859130859375,-40.9403076171875,2023-09-09 21:48:04.3660,1694314084.366271,0.06689226627349854,-0.0027676215395331383,0.01703861728310585,0.09980776906013489,0.982498049736023,-0.2188720852136612,
1,2023-09-09 21:47:46.8590,02:58,10,1,2023-09-09 21:48:04.8620,1694314084.862067,-0.0012623383663594723,-0.005547098349779844,-0.004818190820515156,0.052459716796875,-0.042510986328125,-0.9995880126953125,107.20806884765625,-25.864669799804688,-41.21922302246094,2023-09-09 21:48:04.4660,1694314084.466148,0.029897363856434822,0.045051831752061844,0.028260445222258568,0.03114321082830429,1.03839111328125,-0.2846831679344177,
1,2023-09-09 21:47:46.8590,02:58,10,1,2023-09-09 21:48:04.9610,1694314084.9605942,-0.0012623383663594723,-0.005547098349779844,-0.004818190820515156,0.052459716796875,-0.042510986328125,-0.9995880126953125,107.26846313476562,-25.92510986328125,-40.85984802246094,2023-09-09 21:48:04.5660,1694314084.565999,0.08978406339883804,-0.027728499844670296,0.013595116324722767,0.1277160719037056,0.963958740234375,-0.1988373100757599,
1,2023-09-09 21:47:46.8590,02:58,10,1,2023-09-09 21:48:05.0610,1694314085.0606241,-0.0027422569692134857,-0.0025419872254133224,-0.0027656927704811096,0.0524444580078125,-0.042572021484375,-0.9991302490234375,107.08895874023438,-26.094467163085938,-41.15196228027344,2023-09-09 21:48:04.6660,1694314084.665853,-0.022584619000554085,0.031105924397706985,0.019640658050775528,0.08482363075017929,0.9839324951171875,-0.272369384765625,
1,2023-09-09 21:47:46.8590,02:58,10,1,2023-09-09 21:48:05.1590,1694314085.1593409,0.00037470675306394696,-0.0037947380915284157,-0.0034258903469890356,0.05230712890625,-0.0422210693359375,-0.9981842041015625,107.1920166015625,-26.055862426757812,-41.28546142578125,2023-09-09 21:48:04.7660,1694314084.765572,0.26016998291015625,-0.09019813686609268,0.0012207046383991838,0.1296844482421875,0.917236328125,-0.18223567306995392,
1,2023-09-09 21:47:46.8590,02:58,10,1,2023-09-09 21:48:05.2610,1694314085.261383,-0.0019244002178311348,-0.0016391756944358349,-0.0013526194961741567,0.0525665283203125,-0.042144775390625,-0.99945068359375,107.33489990234375,-26.28814697265625,-40.60289001464844,2023-09-09 21:48:04.8650,1694314084.8653312,-0.2981205880641937,0.0865180492401123,-0.0008515675435774028,0.0777435153722763,1.0052184462547302,-0.2921905666589737,
1,2023-09-09 21:47:46.8590,02:58,10,1,2023-09-09 21:48:05.3620,1694314085.362372,0.0014940333785489202,-0.0028818065766245127,-0.003477022983133793,0.052764892578125,-0.0420074462890625,-0.998565673828125,107.17573547363281,-26.135208129882812,-40.85829162597656,2023-09-09 21:48:04.9650,1694314084.9654589,-0.08764597773551941,0.05810172110795975,0.01866930164396763,0.052841246128082275,0.977707028388977,-0.2799530178308487,
1,2023-09-09 21:47:46.8590,02:58,10,1,2023-09-09 21:48:05.4620,1694314085.46191,-0.0010775149567052722,-0.005655222572386265,-0.00016005597717594355,0.052764892578125,-0.041900634765625,-0.9996490478515625,107.27507019042969,-26.277862548828125,-39.57023620605469,2023-09-09 21:48:05.0650,1694314085.0651932,-0.08597763627767563,0.017663750797510147,-0.006900038570165634,0.11038213968276978,0.92877197265625,-0.2445526123046875,
1,2023-09-09 21:47:46.8590,02:58,10,1,2023-09-09 21:48:05.5600,1694314085.5597,-0.00037523938226513565,-0.00637933611869812,-0.0005286374944262207,0.0531158447265625,-0.04156494140625,-0.9987945556640625,107.24908447265625,-25.894180297851562,-40.97538757324219,2023-09-09 21:48:05.1650,1694314085.164991,-0.08489153534173965,0.10865956544876099,0.030667010694742203,0.050262466073036194,0.9872130155563354,-0.27233879268169403,
1,2023-09-09 21:47:46.8590,02:58,10,1,2023-09-09 21:48:05.6620,1694314085.6621451,-0.003233876544982195,-0.004189152270555496,-0.00341577036306262,0.052001953125,-0.0416107177734375,-0.9973297119140625,107.26593017578125,-26.19488525390625,-40.97825622558594,2023-09-09 21:48:05.2650,1694314085.264993,0.0649811178445816,-0.022548915818333626,0.02836187742650509,0.1004791110754013,0.9194794297218323,-0.2299957275390625,
1,2023-09-09 21:47:46.8590,02:58,10,1,2023-09-09 21:48:05.7620,1694314085.761627,-0.0017480988753959537,-0.005313006229698658,-0.004251736681908369,0.0530242919921875,-0.042083740234375,-0.9986572265625,107.29336547851562,-26.054794311523438,-41.05194091796875,2023-09-09 21:48:05.3650,1694314085.364789,0.3146081268787384,-0.05277978628873825,-0.013166324235498905,0.09056094288825989,0.914443850517273,-0.20155330002307892,
1,2023-09-09 21:47:46.8590,02:58,10,1,2023-09-09 21:48:05.8600,1694314085.8604689,-0.00119629199616611,-0.004280498716980219,-0.0031230889726430178,0.0527191162109375,-0.0416259765625,-0.9996795654296875,107.23463439941406,-26.0802001953125,-40.85276794433594,2023-09-09 21:48:05.4650,1694314085.464643,-0.047205545008182526,0.08394064009189606,-0.01865493133664131,0.1109619289636612,0.8819121718406677,-0.2760162353515625,
1,2023-09-09 21:47:46.8590,02:58,10,1,2023-09-09 21:48:05.9600,1694314085.960435,-0.0007539408979937434,-0.00424135010689497,-0.003100185887888074,0.0536041259765625,-0.0420074462890625,-0.9979400634765625,107.28126525878906,-26.039108276367188,-40.78590393066406,2023-09-09 21:48:05.5640,1694314085.564403,0.13751763105392456,-0.018341122195124626,0.013104362413287163,0.0921325758099556,0.9613646864891052,-0.2304382175207138,
1,2023-09-09 21:47:46.8590,02:58,10,1,2023-09-09 21:48:06.0610,1694314086.061455,-0.0012570120161399245,-0.0020301276817917824,-0.002263686852529645,0.05206298828125,-0.042327880859375,-0.9982147216796875,107.23574829101562,-25.974533081054688,-40.9913330078125,2023-09-09 21:48:05.6640,1694314085.6642609,-0.14605727791786194,-0.0028041070327162743,0.019364621490240097,0.1362914815545082,0.9381713271141052,-0.2035979926586151,
1,2023-09-09 21:47:46.8590,02:58,10,1,2023-09-09 21:48:06.1590,1694314086.159437,-0.0014383733505383134,-0.003994475118815899,-0.002064748667180538,0.052154541015625,-0.042144775390625,-0.9998779296875,107.19102478027344,-25.772018432617188,-41.118865966796875,2023-09-09 21:48:05.7640,1694314085.7641048,0.15503178536891937,-0.08844990283250809,-0.03759097307920456,0.12135317176580429,0.937042236328125,-0.2317352145910263,
1,2023-09-09 21:47:46.8590,02:58,10,1,2023-09-09 21:48:06.2620,1694314086.2616,0.00032384038786403835,-0.006874950136989355,-0.002395513467490673,0.052734375,-0.04180908203125,-0.997894287109375,107.45063781738281,-26.069091796875,-40.87532043457031,2023-09-09 21:48:05.8640,1694314085.864025,-0.139510378241539,0.07179063558578491,0.021665425971150398,0.07463071495294571,0.9809417128562927,-0.2483215034008026,
1,2023-09-09 21:47:46.8590,02:58,10,1,2023-09-09 21:48:06.3610,1694314086.360941,-0.0012740562669932842,-0.006371080409735441,-0.0010892328573390841,0.053375244140625,-0.0428466796875,-0.9988250732421875,107.46223449707031,-26.047164916992188,-41.1058349609375,2023-09-09 21:48:05.9640,1694314085.9637651,0.1504611223936081,-0.04699460417032242,-0.018409356474876404,0.10350040346384048,0.8834532499313354,-0.2378845363855362,
1,2023-09-09 21:47:46.8590,02:58,10,1,2023-09-09 21:48:06.4610,1694314086.46108,0.0003810983616858721,-0.006392385344952345,-0.003984089009463787,0.0520477294921875,-0.04241943359375,-0.9996337890625,107.20761108398438,-25.81109619140625,-41.03553771972656,2023-09-09 21:48:06.0640,1694314086.063581,0.05489472672343254,-0.043089210987091064,-0.014031817205250263,0.1175232008099556,0.9862366914749146,-0.2271728366613388,
1,2023-09-09 21:47:46.8590,02:58,10,1,2023-09-09 21:48:06.5620,1694314086.5617142,-0.0018927085911855102,-0.0049369679763913155,-0.0036842171102762222,0.0524139404296875,-0.04205322265625,-0.9995269775390625,107.25527954101562,-26.196868896484375,-41.089599609375,2023-09-09 21:48:06.1640,1694314086.163521,0.037259604781866074,0.005560216493904591,-0.009859343990683556,0.0951080471277237,0.94659423828125,-0.2382202446460724,
1,2023-09-09 21:47:46.8590,02:58,10,1,2023-09-09 21:48:06.6610,1694314086.660599,-4.447478931979276e-05,-0.00458756135776639,-0.0026879284996539354,0.0523223876953125,-0.0418243408203125,-0.99951171875,107.273681640625,-26.1131591796875,-41.18446350097656,2023-09-09 21:48:06.2630,1694314086.263305,-0.06946198642253876,0.12477382272481918,0.01867053471505642,0.04373174160718918,1.0066224336624146,-0.2642822712659836,
1,2023-09-09 21:47:46.8590,02:58,10,1,2023-09-09 21:48:06.7590,1694314086.759437,0.00024048343766480684,-0.006238188594579697,-0.001731587341055274,0.0532073974609375,-0.0415802001953125,-0.9998779296875,107.14703369140625,-26.154129028320312,-40.94671630859375,2023-09-09 21:48:06.3630,1694314086.363163,-0.07514989376068115,0.08165284991264343,-0.051241468638181686,0.082366943359375,0.8784637451171875,-0.1820373684167862,
1,2023-09-09 21:47:46.8590,02:58,10,1,2023-09-09 21:48:06.8610,1694314086.861126,-0.0004916195175610483,-0.0025068335235118866,-0.0024546354543417692,0.0528411865234375,-0.0431365966796875,-0.9993743896484375,107.16494750976562,-26.002944946289062,-41.01521301269531,2023-09-09 21:48:06.4630,1694314086.463023,0.08282695710659027,-0.09905141592025757,-0.003837470430880785,0.09303287416696548,1.01251220703125,-0.2600555419921875,
1,2023-09-09 21:47:46.8590,02:58,10,1,2023-09-09 21:48:06.9610,1694314086.9609509,-0.0017720673931762576,-0.00430073868483305,-0.00022743394947610795,0.052642822265625,-0.042755126953125,-0.99920654296875,107.18412780761719,-25.99188232421875,-41.07484436035156,2023-09-09 21:48:06.5630,1694314086.562804,-0.09855994582176208,0.030314698815345764,-0.06295335292816162,0.0765686184167862,0.95684814453125,-0.3104095160961151,
1,2023-09-09 21:47:46.8590,02:58,10,1,2023-09-09 21:48:07.0600,1694314087.060276,0.00038216362008824944,-0.0032687638886272907,-0.0033185649663209915,0.0528717041015625,-0.042236328125,-0.99871826171875,107.21495056152344,-25.937744140625,-41.1087646484375,2023-09-09 21:48:06.6630,1694314086.662673,0.01563393883407116,-0.029387114569544792,-0.011316891759634018,0.1019287034869194,0.9455108046531677,-0.2307128757238388,
1,2023-09-09 21:47:46.8590,02:58,10,1,2023-09-09 21:48:07.1720,1694314087.171997,-0.0019864519126713276,-0.006440322380512953,-0.002883138135075569,0.0519561767578125,-0.041473388671875,-0.9993438720703125,107.13540649414062,-25.991180419921875,-40.70582580566406,2023-09-09 21:48:06.7620,1694314086.7624578,-0.08545319736003876,-0.01959507167339325,-0.017346588894724846,0.0988922119140625,0.9481353759765625,-0.2506866455078125,
1,2023-09-09 21:47:46.8590,02:58,10,1,2023-09-09 21:48:07.2610,1694314087.2614589,-0.0019864519126713276,-0.006440322380512953,-0.002883138135075569,0.0519561767578125,-0.041473388671875,-0.9993438720703125,107.2127685546875,-25.95758056640625,-40.6173095703125,2023-09-09 21:48:06.8620,1694314086.862298,-0.0120694600045681,-0.02389514446258545,-0.016482293605804443,0.086273193359375,1.0496826171875,-0.24076847732067108,
1,2023-09-09 21:47:46.8590,02:58,10,1,2023-09-09 21:48:07.3600,1694314087.359613,-0.0020777983590960503,-0.007896272465586662,-0.00355904852040112,0.0531158447265625,-0.0421905517578125,-0.9986724853515625,107.28805541992188,-26.094772338867188,-39.98814392089844,2023-09-09 21:48:06.9620,1694314086.962048,-0.044687457382678986,0.061034657061100006,0.025512496009469032,0.0519561842083931,0.9893493056297302,-0.2642516940832138,
1,2023-09-09 21:47:46.8590,02:58,10,1,2023-09-09 21:48:07.4610,1694314087.460981,-0.0015270565636456013,-0.006423810962587595,-0.004069310147315264,0.05328369140625,-0.0419921875,-0.998992919921875,107.19841003417969,-26.058670043945312,-40.075836181640625,2023-09-09 21:48:07.0620,1694314087.0619922,0.011029200628399849,-0.09830466657876968,0.0019334664102643728,0.1433868631720543,0.9082183837890625,-0.20961004495620728,
1,2023-09-09 21:47:46.8590,02:58,10,1,2023-09-09 21:48:07.5620,1694314087.561809,-0.003114566905423999,-0.004032292403280735,-0.0031193606555461884,0.0527191162109375,-0.0420989990234375,-0.99853515625,107.33653259277344,-26.1566162109375,-40.49977111816406,2023-09-09 21:48:07.1620,1694314087.16183,0.023206572979688644,-0.02369820326566696,-0.0391203947365284,0.08720402419567108,0.9976348876953125,-0.2581939697265625,
1,2023-09-09 21:47:46.8590,02:58,10,1,2023-09-09 21:48:07.6610,1694314087.661098,-0.001460743835195899,-0.005301554687321186,-0.0030336068011820316,0.053955078125,-0.0421905517578125,-0.9993438720703125,107.22105407714844,-25.77398681640625,-40.968536376953125,2023-09-09 21:48:07.2620,1694314087.261847,-0.10459034144878387,0.050624098628759384,0.0066564492881298065,0.0682983472943306,1.0004119277000427,-0.2405853569507599,
1,2023-09-09 21:47:46.8590,02:58,10,1,2023-09-09 21:48:07.7600,1694314087.760044,-2.450108149787411e-05,-0.003221359569579363,-0.0025065671652555466,0.05279541015625,-0.0421905517578125,-0.999420166015625,107.27557373046875,-26.282150268554688,-40.841796875,2023-09-09 21:48:07.3610,1694314087.3614922,0.07794751226902008,0.06877487152814865,0.029142584651708603,0.0419158861041069,1.0335540771484375,-0.2407073974609375,
1,2023-09-09 21:47:46.8590,02:58,10,1,2023-09-09 21:48:07.8610,1694314087.860637,-0.0033425334841012955,-0.005141498986631632,-0.0015659386990591884,0.0531463623046875,-0.0428466796875,-0.9990081787109375,107.21324157714844,-25.962661743164062,-41.07118225097656,2023-09-09 21:48:07.4610,1694314087.461407,-0.10991133749485016,-0.11080127954483032,-0.02846265397965908,0.1391143724322319,0.8968353271484375,-0.2068176418542862,
1,2023-09-09 21:47:46.8590,02:58,10,1,2023-09-09 21:48:07.9620,1694314087.961535,0.0016919062472879887,-0.003865312086418271,-0.003373692510649562,0.0531463623046875,-0.0424652099609375,-0.998626708984375,107.34001159667969,-25.97711181640625,-41.09700012207031,2023-09-09 21:48:07.5610,1694314087.5612822,0.06841859221458435,-0.06365347653627396,-0.00743213901296258,0.1015319973230362,0.98095703125,-0.2572479397058487,
1,2023-09-09 21:47:46.8590,02:58,10,1,2023-09-09 21:48:08.0600,1694314088.059597,-0.0012183962389826775,-0.003823234001174569,-0.005063734482973814,0.05279541015625,-0.0417633056640625,-0.999053955078125,107.31184387207031,-26.059661865234375,-40.69114685058594,2023-09-09 21:48:07.6610,1694314087.66109,-0.09427251666784286,0.1054038554430008,-0.025789208710193634,0.07754519581794739,0.9953156113624573,-0.2484893798828125,
1,2023-09-09 21:47:46.8590,02:58,10,1,2023-09-09 21:48:08.1710,1694314088.1712651,-0.001770469476468861,-0.003486077766865492,-0.0026586337480694056,0.05255126953125,-0.0416412353515625,-1.00103759765625,107.4033203125,-25.968841552734375,-40.844085693359375,2023-09-09 21:48:07.7610,1694314087.7608972,0.02881445549428463,0.03380889818072319,-0.00505859637632966,0.08927920460700989,0.9686279296875,-0.2295226901769638,
1,2023-09-09 21:47:46.8590,02:58,10,1,2023-09-09 21:48:08.2600,1694314088.2600222,-0.0007563377148471773,-0.005809952039271593,-0.002302569104358554,0.0529632568359375,-0.04290771484375,-0.9979400634765625,107.22640991210938,-26.177947998046875,-40.76214599609375,2023-09-09 21:48:07.8610,1694314087.8606172,-0.06595339626073837,0.12507130205631256,0.055882152169942856,0.08062747120857239,1.0185089707374573,-0.2386016547679901,
1,2023-09-09 21:47:46.8590,02:58,10,1,2023-09-09 21:48:08.3610,1694314088.3610082,-0.0031284152064472437,-0.006442452780902386,-0.0024770060554146767,0.0523834228515625,-0.042816162109375,-0.998870849609375,107.26774597167969,-26.105743408203125,-40.64485168457031,2023-09-09 21:48:07.9610,1694314087.960608,-0.054022371768951416,-0.05934235453605652,0.03765464574098587,0.10559079796075821,0.88861083984375,-0.2539215385913849,
1,2023-09-09 21:47:46.8590,02:58,10,1,2023-09-09 21:48:08.4610,1694314088.4611459,-0.002511893631890416,-0.0032139027025550604,-0.0028788771014660597,0.0532989501953125,-0.042236328125,-0.9985198974609375,107.31654357910156,-25.979278564453125,-41.08061218261719,2023-09-09 21:48:08.0610,1694314088.060526,0.04529063403606415,-0.021351292729377747,0.009486124850809574,0.0649566799402237,0.981842041015625,-0.2510986179113388,
1,2023-09-09 21:47:46.8590,02:58,10,1,2023-09-09 21:48:08.5610,1694314088.56117,0.0012173309223726392,-0.00412417110055685,-0.004230697639286518,0.052520751953125,-0.042236328125,-0.9995880126953125,107.31723022460938,-25.789474487304688,-40.65289306640625,2023-09-09 21:48:08.1600,1694314088.160263,-0.0413198247551918,0.021006152033805847,-0.0033167891670018435,0.11225893348455429,0.9573363661766052,-0.2308044582605362,
1,2023-09-09 21:47:46.8590,02:58,10,1,2023-09-09 21:48:08.6600,1694314088.660485,0.0026136261876672506,-0.005727394018322229,-0.002519350266084075,0.051910400390625,-0.041229248046875,-0.9980926513671875,107.40211486816406,-25.791702270507812,-40.46757507324219,2023-09-09 21:48:08.2600,1694314088.260113,-0.0577678382396698,-0.010759634897112846,0.016431381925940514,0.0960235446691513,1.0021972060203552,-0.3051910251379013,
1,2023-09-09 21:47:46.8590,02:58,10,1,2023-09-09 21:48:08.7610,1694314088.761304,-0.0018282600212842226,-0.0009480853332206607,-0.001784850494004786,0.052276611328125,-0.0425262451171875,-0.9977874755859375,107.38595581054688,-25.939102172851562,-40.77473449707031,2023-09-09 21:48:08.3600,1694314088.360167,0.1360204666852951,0.014834541827440262,0.049987245351076126,0.0779724270105362,0.9731901288032532,-0.2643889933824539,
1,2023-09-09 21:47:46.8590,02:58,10,1,2023-09-09 21:48:08.8610,1694314088.8612862,-0.0006450176006183028,-0.0062459115870296955,-0.0033547841012477875,0.0528564453125,-0.0421905517578125,-0.9997711181640625,107.1597900390625,-25.854827880859375,-40.73370361328125,2023-09-09 21:48:08.4600,1694314088.459794,0.05453985929489136,0.050109442323446274,0.013756070286035538,0.07948306202888489,1.00067138671875,-0.2693939507007599,
1,2023-09-09 21:47:46.8590,02:58,10,1,2023-09-09 21:48:08.9600,1694314088.9596791,0.0013201289111748338,-0.003681021276861429,-0.002888997085392475,0.05291748046875,-0.04278564453125,-0.9997406005859375,107.33030700683594,-25.994644165039062,-40.181396484375,2023-09-09 21:48:08.5600,1694314088.559636,-0.23161765933036804,-0.055571049451828,0.09030041843652725,0.14265446364879608,0.8467406630516052,-0.2115020453929901,
1,2023-09-09 21:47:46.8590,02:58,10,1,2023-09-09 21:48:09.0610,1694314089.060917,-0.002513491315767169,-0.003972637467086315,-0.003364371368661523,0.05316162109375,-0.0418548583984375,-0.9992523193359375,107.29747009277344,-25.826019287109375,-40.62287902832031,2023-09-09 21:48:08.6590,1694314088.659472,-0.10880585759878159,0.02454482577741146,0.0798082947731018,0.11604312807321548,1.0296325087547302,-0.2801056057214737,
1,2023-09-09 21:47:46.8590,02:58,10,1,2023-09-09 21:48:09.1700,1694314089.170154,-0.002877279184758663,-0.003228283952921629,-0.002743322169408202,0.052947998046875,-0.0424041748046875,-0.998565673828125,107.30177307128906,-25.95843505859375,-40.65557861328125,2023-09-09 21:48:08.7590,1694314088.7593188,0.1469763219356537,0.0577164962887764,-0.0135479886084795,0.0408782884478569,1.0435944199562073,-0.2893829196691513,
1,2023-09-09 21:47:46.8590,02:58,10,1,2023-09-09 21:48:09.2610,1694314089.2613,-0.0012266519479453564,-0.00498224189504981,-0.0018956380663439631,0.0529632568359375,-0.042938232421875,-0.998565673828125,107.2686767578125,-25.8353271484375,-40.53755187988281,2023-09-09 21:48:08.8590,1694314088.859006,-0.07611768692731857,0.04541628435254097,-0.061896514147520065,0.10647585242986679,0.8751525282859802,-0.2172546088695526,
1,2023-09-09 21:47:46.8590,02:58,10,1,2023-09-09 21:48:09.3600,1694314089.36032,-0.00330231967382133,-0.005761216394603252,-0.0035542547702789307,0.0528564453125,-0.042022705078125,-0.999053955078125,107.26530456542969,-25.807220458984375,-40.97845458984375,2023-09-09 21:48:08.9590,1694314088.959282,0.29654815793037415,0.06565763801336288,-0.04999304935336113,0.0780792161822319,1.0486297607421875,-0.270751953125,
1,2023-09-09 21:47:46.8590,02:58,10,1,2023-09-09 21:48:09.4600,1694314089.460254,-0.0008602010202594101,-0.0065532405860722065,-0.0032621060963720083,0.053314208984375,-0.041900634765625,-0.9993743896484375,107.25717163085938,-25.877944946289062,-40.716949462890625,2023-09-09 21:48:09.0590,1694314089.058846,0.15976840257644653,0.01367766410112381,0.005591018591076136,0.11770635098218918,1.00982666015625,-0.239959716796875,
1,2023-09-09 21:47:46.8590,02:58,10,1,2023-09-09 21:48:09.5610,1694314089.5609078,0.00034461304312571883,-0.0022714100778102875,-0.004604605492204428,0.0529022216796875,-0.0415802001953125,-0.9983673095703125,107.32514953613281,-25.850021362304688,-40.947021484375,2023-09-09 21:48:09.1590,1694314089.158661,-0.010604456067085266,0.07240422815084457,-0.015070018358528614,0.086944580078125,0.9264068603515625,-0.2503509968519211,
1,2023-09-09 21:47:46.8590,02:58,10,1,2023-09-09 21:48:09.6610,1694314089.661034,-0.0008705873624421656,-0.0007904262165538967,-0.0033156354911625385,0.052337646484375,-0.04241943359375,-0.9978179931640625,107.35490417480469,-26.149688720703125,-40.95050048828125,2023-09-09 21:48:09.2590,1694314089.25876,0.23658649623394012,0.041572678834199905,-0.06397287547588348,0.07980344444513321,0.9929962158203125,-0.2598419487476349,
1,2023-09-09 21:47:46.8590,02:58,10,1,2023-09-09 21:48:09.7600,1694314089.7599912,-0.000284159294096753,-0.005061870440840721,-0.0014852449530735612,0.052032470703125,-0.04193115234375,-0.9981842041015625,107.29339599609375,-26.010848999023438,-40.614715576171875,2023-09-09 21:48:09.3580,1694314089.35836,0.1546890288591385,0.046351052820682526,-0.0965413749217987,0.1106719970703125,0.9238739013671875,-0.2902984619140625,
1,2023-09-09 21:47:46.8590,02:58,10,1,2023-09-09 21:48:09.8610,1694314089.860795,-0.0008189220097847283,-0.0052203284576535225,-0.002555036684498191,0.052459716796875,-0.0411834716796875,-0.9991302490234375,107.26249694824219,-25.70819091796875,-40.830718994140625,2023-09-09 21:48:09.4580,1694314089.4581919,0.026246769353747368,-0.07288798689842224,0.02088811621069908,0.1581268534064293,0.9381866455078125,-0.2201538234949112,
1,2023-09-09 21:47:46.8590,02:58,10,1,2023-09-09 21:48:09.9610,1694314089.960773,0.00039734362508170307,-0.005790511146187782,-0.002724946476519108,0.052276611328125,-0.0417938232421875,-0.99932861328125,107.10202026367188,-25.7293701171875,-40.82440185546875,2023-09-09 21:48:09.5580,1694314089.558051,-0.056827809661626816,0.030789539217948914,-0.019346555694937706,0.12133791297674179,0.985183835029602,-0.21788029372692108,
1,2023-09-09 21:47:46.8590,02:58,10,1,2023-09-09 21:48:10.0610,1694314090.061026,-0.003397927153855562,-0.0068001155741512775,-0.0014032195322215557,0.0525360107421875,-0.0418853759765625,-0.998321533203125,107.41282653808594,-25.729156494140625,-40.533294677734375,2023-09-09 21:48:09.6580,1694314089.6578422,-0.08647798001766205,0.0556139312684536,0.07392220944166183,0.1371612846851349,0.9355620741844177,-0.1900482177734375,
1,2023-09-09 21:47:46.8590,02:58,10,1,2023-09-09 21:48:10.1710,1694314090.170892,-0.002620816696435213,-0.006197708658874035,-0.004027232062071562,0.052642822265625,-0.042205810546875,-0.9986114501953125,107.14399719238281,-25.598464965820312,-41.25453186035156,2023-09-09 21:48:09.7580,1694314089.7577271,-0.05326523259282112,-0.05565307289361954,-0.04162725806236267,0.16822818666696548,0.9141388535499573,-0.1808777004480362,
1,2023-09-09 21:47:46.8590,02:58,10,1,2023-09-09 21:48:10.2620,1694314090.261633,-0.0011134676169604063,-0.0025683525018393993,-0.0011121360585093498,0.053375244140625,-0.042236328125,-0.999420166015625,107.25477600097656,-25.816909790039062,-40.776947021484375,2023-09-09 21:48:09.8580,1694314089.8576121,0.11908389627933502,-0.10434258729219437,-0.03473353758454323,0.1356811746954918,0.961227297782898,-0.1988830417394638,
1,2023-09-09 21:47:46.8590,02:58,10,1,2023-09-09 21:48:10.3600,1694314090.36011,-0.001606418751180172,-0.004068244714289904,-0.004353735595941544,0.051605224609375,-0.04296875,-0.999908447265625,107.34158325195312,-25.858413696289062,-41.26393127441406,2023-09-09 21:48:09.9570,1694314089.9572701,0.17492911219596863,-0.13483084738254547,-0.0658804401755333,0.1290741264820099,1.0818939208984375,-0.2626647800207138,
1,2023-09-09 21:47:46.8590,02:58,10,1,2023-09-09 21:48:10.4610,1694314090.4611259,-0.00407623453065753,-0.005792375188320875,-0.003341201925650239,0.0535888671875,-0.041839599609375,-0.998565673828125,107.27122497558594,-25.744155883789062,-40.90415954589844,2023-09-09 21:48:10.0570,1694314090.0573568,0.009278838522732258,-0.008147073909640312,0.020431850105524063,0.11666872352361679,0.9598389863967896,-0.20013432204723358,
1,2023-09-09 21:47:46.8590,02:58,10,1,2023-09-09 21:48:10.5610,1694314090.561082,-0.0013198626693338156,-0.00236195744946599,-0.00481313094496727,0.05279541015625,-0.0418243408203125,-0.9983367919921875,107.24566650390625,-25.800628662109375,-40.98774719238281,2023-09-09 21:48:10.1570,1694314090.1571078,-0.08360303193330765,0.0597936287522316,-0.05070910602807999,0.07597354054450989,0.959136962890625,-0.2315368503332138,
1,2023-09-09 21:47:46.8590,02:58,10,1,2023-09-09 21:48:10.6610,1694314090.660891,0.005846970248967409,-0.005210208240896463,-0.0020330571569502354,0.0526275634765625,-0.042724609375,-1.0001068115234375,107.25535583496094,-25.779434204101562,-41.03875732421875,2023-09-09 21:48:10.2570,1694314090.257102,0.007040251046419144,0.03774731233716011,-0.012290310114622116,0.0818634182214737,0.9886780381202698,-0.21826171875,
1,2023-09-09 21:47:46.8590,02:58,10,1,2023-09-09 21:48:10.7610,1694314090.7606978,-0.0022450448013842106,-0.0032866070978343487,-0.0014426343841478229,0.052337646484375,-0.0408782958984375,-0.9982147216796875,107.23432922363281,-25.694808959960938,-40.8760986328125,2023-09-09 21:48:10.3570,1694314090.3568048,0.059290606528520584,0.005399094894528389,0.0013546949485316873,0.1324462741613388,0.940017580986023,-0.1962279975414276,
1,2023-09-09 21:47:46.8590,02:58,10,1,2023-09-09 21:48:10.8610,1694314090.8611221,-0.0027917916886508465,-0.0023901870008558035,-0.0012367720482870936,0.051788330078125,-0.0421142578125,-0.9996490478515625,107.33137512207031,-25.665618896484375,-41.13200378417969,2023-09-09 21:48:10.4570,1694314090.4565148,0.17730192840099335,-0.1476338505744934,-0.09637825936079025,0.1469573900103569,0.9859771132469177,-0.2061767280101776,
1,2023-09-09 21:47:46.8590,02:58,10,1,2023-09-09 21:48:10.9600,1694314090.9602442,0.0018884475575760007,-0.0062421830371022224,-0.005483448505401611,0.0536956787109375,-0.042816162109375,-0.9994964599609375,107.27735900878906,-25.886566162109375,-41.05870056152344,2023-09-09 21:48:10.5570,1694314090.556612,-0.30978164076805115,0.1348557472229004,-0.06772293895483017,0.006271392107009888,0.978775143623352,-0.3171539604663849,
1,2023-09-09 21:47:46.8590,02:58,10,1,2023-09-09 21:48:11.0610,1694314091.060631,0.001169394003227353,-0.006208627484738827,-0.0020865867845714092,0.052520751953125,-0.0418853759765625,-0.9984588623046875,107.42942810058594,-25.621932983398438,-41.54791259765625,2023-09-09 21:48:10.6560,1694314090.656333,0.09481851011514664,0.11763056367635727,0.19355089962482452,0.030731193721294403,0.988662600517273,-0.2417297214269638,
1,2023-09-09 21:47:46.8590,02:58,10,1,2023-09-09 21:48:11.1590,1694314091.159243,0.0007629956235177815,-0.005256547126919031,-0.0011342403013259172,0.0525665283203125,-0.0418548583984375,-0.9945220947265625,107.16069030761719,-25.849029541015625,-41.40968322753906,2023-09-09 21:48:10.7560,1694314090.756122,-0.014338873326778412,0.026195986196398735,0.05742741748690605,0.05722048878669739,0.9706573486328125,-0.2623138576745987,
1,2023-09-09 21:47:46.8590,02:58,10,1,2023-09-09 21:48:11.2600,1694314091.259537,-0.08039790391921997,0.022696789354085922,-0.0005989448982290924,0.048675537109375,-0.052947998046875,-0.9954681396484375,107.39570617675781,-26.0435791015625,-41.28334045410156,2023-09-09 21:48:10.8560,1694314090.8559399,0.08927386999130249,-0.05905779078602791,0.011922617442905903,0.11154178529977798,0.9729461669921875,-0.2238311618566513,
1,2023-09-09 21:47:46.8590,02:58,10,1,2023-09-09 21:48:11.3610,1694314091.3610868,0.08292044699192047,-0.037752971053123474,-0.004579039290547371,0.04931640625,-0.0547332763671875,-1.00115966796875,107.15681457519531,-26.555221557617188,-41.104522705078125,2023-09-09 21:48:10.9560,1694314090.9557061,-0.11987022310495377,-0.0507374107837677,-0.06708993762731552,0.1324463039636612,0.9604796171188354,-0.23693843185901642,
1,2023-09-09 21:47:46.8590,02:58,10,1,2023-09-09 21:48:11.4610,1694314091.461248,0.1603768914937973,-0.04928206279873848,-0.0044261738657951355,0.047882080078125,-0.0566558837890625,-1.010345458984375,106.97419738769531,-26.848602294921875,-40.802337646484375,2023-09-09 21:48:11.0560,1694314091.055618,-0.12137817591428757,0.0013669361360371113,-0.04226458817720413,0.10305788367986679,1.01458740234375,-0.193115234375,
1,2023-09-09 21:47:46.8590,02:58,10,1,2023-09-09 21:48:11.5600,1694314091.5602798,0.24645079672336578,-0.03816043585538864,0.01182044018059969,0.043701171875,-0.0799407958984375,-0.9984283447265625,106.77146911621094,-27.51812744140625,-40.34466552734375,2023-09-09 21:48:11.1550,1694314091.155462,0.11582199484109879,-0.07686901092529297,-0.010615382343530655,0.1149597316980362,1.0077056884765625,-0.20066837966442108,
1,2023-09-09 21:47:46.8590,02:58,10,1,2023-09-09 21:48:11.6730,1694314091.6731582,0.051654670387506485,0.02562759816646576,0.048357412219047546,0.0455780029296875,-0.081787109375,-1.0077667236328125,107.24954223632812,-27.441253662109375,-39.02388000488281,2023-09-09 21:48:11.2550,1694314091.255465,0.07535313069820404,-0.09294704347848892,-0.032494183629751205,0.1259155347943306,0.9605712890625,-0.2122039943933487,
1,2023-09-09 21:47:46.8590,02:58,10,1,2023-09-09 21:48:11.7620,1694314091.762311,-0.16766436398029327,0.01828739419579506,-0.006135390605777502,0.0523834228515625,-0.05731201171875,-0.99127197265625,107.48921203613281,-26.745223999023438,-39.058685302734375,2023-09-09 21:48:11.3550,1694314091.355253,0.1834980994462967,-0.11167173832654953,0.0009051199886016548,0.11755374073982239,0.9973755478858948,-0.2239990383386612,
1,2023-09-09 21:47:46.8590,02:58,10,1,2023-09-09 21:48:11.8610,1694314091.860754,0.11116060614585876,-0.026555977761745453,0.0005102616851218045,0.0485076904296875,-0.04388427734375,-0.9774932861328125,107.32321166992188,-26.292877197265625,-39.53871154785156,2023-09-09 21:48:11.4550,1694314091.455041,0.10543332993984222,-0.018813831731677055,-0.001820325618609786,0.08531193435192108,0.9745635390281677,-0.2359771430492401,
1,2023-09-09 21:47:46.8590,02:58,10,1,2023-09-09 21:48:11.9590,1694314091.959331,-0.0014287859667092562,-0.00230842805467546,-0.002261822810396552,0.0514373779296875,-0.052276611328125,-0.9991302490234375,107.93394470214844,-27.379730224609375,-36.68281555175781,2023-09-09 21:48:11.5550,1694314091.554858,0.05418166145682335,-0.02645856887102127,-0.06925253570079803,0.08103947341442108,0.990264892578125,-0.2473907172679901,
1,2023-09-09 21:47:46.8590,02:58,10,1,2023-09-09 21:48:12.0580,1694314092.0584369,-0.021495969966053963,-0.0011741877533495426,0.00010359696898376569,0.050018310546875,-0.052337646484375,-0.998016357421875,107.98091125488281,-27.406082153320312,-35.65531921386719,2023-09-09 21:48:11.6550,1694314091.654789,0.07863201946020126,-0.07175308465957642,-0.026133887469768524,0.07875064015388489,0.992095947265625,-0.2627411186695099,
1,2023-09-09 21:47:46.8590,02:58,10,1,2023-09-09 21:48:12.1580,1694314092.158389,0.006396912969648838,-0.008100536651909351,-0.003546797903254628,0.05035400390625,-0.052490234375,-1.0003662109375,108.11293029785156,-27.393020629882812,-36.168182373046875,2023-09-09 21:48:11.7550,1694314091.7545981,0.0004694341914728284,0.07884442061185837,0.06278380006551743,0.044906601309776306,0.9593505859375,-0.24221806228160858,
1,2023-09-09 21:47:46.8590,02:58,10,1,2023-09-09 21:48:12.2580,1694314092.258414,0.000728907180018723,-0.00708800321444869,-0.0044440170750021935,0.04931640625,-0.0522918701171875,-0.9985809326171875,107.38206481933594,-26.58819580078125,-38.83570861816406,2023-09-09 21:48:11.8540,1694314091.854354,-0.06047101691365242,0.03149367868900299,0.010161668062210083,0.0886230543255806,0.9640198349952698,-0.2389221340417862,
1,2023-09-09 21:47:46.8590,02:58,10,1,2023-09-09 21:48:12.3580,1694314092.358464,0.0003222425002604723,-0.008991630747914314,-0.0024895230308175087,0.0480804443359375,-0.0513763427734375,-0.9977569580078125,107.0606689453125,-26.063079833984375,-40.915435791015625,2023-09-09 21:48:11.9540,1694314091.9542398,-0.024169333279132843,0.005496699828654528,0.028917178511619568,0.10206606239080429,0.978179931640625,-0.22595219314098358,
1,2023-09-09 21:47:46.8590,02:58,10,1,2023-09-09 21:48:12.4580,1694314092.45849,0.0018775284988805652,-0.004561462439596653,0.0002324939559912309,0.049407958984375,-0.0522613525390625,-1.000335693359375,107.20689392089844,-26.344100952148438,-39.701568603515625,2023-09-09 21:48:12.0540,1694314092.0540528,-0.06395875662565231,0.03406190127134323,0.02997215837240219,0.090362548828125,0.9738922119140625,-0.2436370998620987,
1,2023-09-09 21:47:46.8590,02:58,10,1,2023-09-09 21:48:12.6320,1694314092.6318111,-0.0008215851848945022,-0.006658968050032854,-0.0026929883752018213,0.0482635498046875,-0.0520172119140625,-0.9988861083984375,107.13499450683594,-26.139312744140625,-40.26387023925781,2023-09-09 21:48:12.1540,1694314092.153913,-0.028977736830711365,0.0004275059327483177,-0.05277072265744209,0.0909423753619194,0.9737396240234375,-0.2243652492761612,
1,2023-09-09 21:47:46.8590,02:58,10,1,2023-09-09 21:48:12.6580,1694314092.658428,-0.0014298511669039726,-0.002435993403196335,-0.00261868629604578,0.0482635498046875,-0.0520172119140625,-0.9988861083984375,107.08003234863281,-26.228103637695312,-40.92625427246094,2023-09-09 21:48:12.2540,1694314092.2539039,-0.004437839612364769,-0.08825242519378662,-0.08419812470674515,0.0949554294347763,0.9732818007469177,-0.2402344048023224,
1,2023-09-09 21:47:46.8590,02:58,10,1,2023-09-09 21:48:16.1550,1694314096.155243,0.03177550807595253,-0.018305504694581032,-0.013214604929089546,0.0515289306640625,-0.061126708984375,-0.9948577880859375,107.35871887207031,-27.324142456054688,-38.85191345214844,2023-09-09 21:48:12.3530,1694314092.353461,0.07538901269435883,-0.006194710731506348,-0.02022549882531166,0.06616213172674179,0.95654296875,-0.2353515326976776,
1,2023-09-09 21:47:46.8590,02:58,10,1,2023-09-09 21:48:16.1690,1694314096.1688209,0.12772893905639648,-0.04834356531500816,0.25947898626327515,0.0442962646484375,-0.06610107421875,-1.008880615234375,106.44108581542969,-26.118789672851562,-39.59004211425781,2023-09-09 21:48:12.4530,1694314092.4533281,-0.020228054374456406,-0.0745343565940857,0.025320814922451973,0.0693817138671875,0.99951171875,-0.2305755764245987,
1,2023-09-09 21:47:46.8590,02:58,10,1,2023-09-09 21:48:16.2590,1694314096.25895,-0.18437543511390686,0.0112196309491992,-0.01389850489795208,0.0265045166015625,-0.0863037109375,-0.985626220703125,106.11643981933594,-26.9561767578125,-38.552276611328125,2023-09-09 21:48:12.5540,1694314092.5535622,0.5743559002876282,-0.222974956035614,-0.09201793372631073,0.1350250020623207,0.9666900634765625,-0.2026214748620987,
1,2023-09-09 21:47:46.8590,02:58,10,1,2023-09-09 21:48:16.3610,1694314096.361178,-0.000618918624240905,-0.0019078885670751333,-0.005744704511016607,0.0440673828125,-0.06707763671875,-1.003692626953125,105.86012268066406,-26.564712524414062,-39.700714111328125,2023-09-09 21:48:12.6530,1694314092.653063,-0.2409740835428238,-0.0017806543037295341,-0.04124393314123154,0.0944519191980362,0.9795380234718323,-0.2663726508617401,
1,2023-09-09 21:47:46.8590,02:58,10,1,2023-09-09 21:48:16.4610,1694314096.461282,-0.056720271706581116,0.01290674414485693,-0.002802710747346282,0.0373687744140625,-0.069976806640625,-0.9973907470703125,105.65829467773438,-26.361923217773438,-40.44671630859375,2023-09-09 21:48:12.7530,1694314092.7531,0.06327562779188156,0.09511193633079529,0.07493563741445541,0.0803680345416069,0.9561766982078552,-0.2575225830078125,
1,2023-09-09 21:47:46.8590,02:58,10,1,2023-09-09 21:48:16.5610,1694314096.56124,-0.031063910573720932,0.005763080436736345,-0.0027137610595673323,0.0410308837890625,-0.071197509765625,-0.999237060546875,105.82766723632812,-26.632537841796875,-40.092437744140625,2023-09-09 21:48:12.8530,1694314092.852765,0.02621394582092762,-0.007092595100402832,0.01797504909336567,0.0935974270105362,0.945281982421875,-0.2516937553882599,
1,2023-09-09 21:47:46.8590,02:58,10,1,2023-09-09 21:48:16.6590,1694314096.659334,-0.031063910573720932,0.005763080436736345,-0.0027137610595673323,0.040771484375,-0.0690460205078125,-0.9971160888671875,105.74421691894531,-26.50543212890625,-40.31390380859375,2023-09-09 21:48:12.9530,1694314092.952609,-0.010359378531575203,0.00022950023412704468,-0.03540235385298729,0.0895385891199112,1.00555419921875,-0.2408447414636612,
1,2023-09-09 21:47:46.8590,02:58,10,1,2023-09-09 21:48:16.7590,1694314096.759254,-0.008708270266652107,0.0001334243715973571,-0.004789162427186966,0.04351806640625,-0.0658721923828125,-0.9994964599609375,105.69139099121094,-26.744064331054688,-40.7271728515625,2023-09-09 21:48:13.0520,1694314093.0524669,-0.06408298760652542,0.015623236075043678,-0.015197916887700558,0.06030276417732239,0.924896240234375,-0.2613983154296875,
1,2023-09-09 21:47:46.8590,02:58,10,1,2023-09-09 21:48:16.8700,1694314096.869976,0.004167846869677305,-0.005360676907002926,-0.004400074947625399,0.04351806640625,-0.0658721923828125,-0.9994964599609375,106.00825500488281,-27.265411376953125,-38.54701232910156,2023-09-09 21:48:13.1520,1694314093.1523209,0.009870459325611591,0.003008641302585602,-0.02024880051612854,0.07937625050544739,0.98187255859375,-0.24246221780776978,
1,2023-09-09 21:47:46.8590,02:58,10,1,2023-09-09 21:48:16.9710,1694314096.9714298,-0.005294098053127527,-0.0041670482605695724,-0.004279167391359806,0.0433502197265625,-0.0672607421875,-0.997589111328125,106.28701782226562,-27.453598022460938,-37.288055419921875,2023-09-09 21:48:13.2520,1694314093.2521071,-0.03916113078594208,0.01660594344139099,0.007629901636391878,0.032897964119911194,0.9681854844093323,-0.2866668701171875,
1,2023-09-09 21:47:46.8590,02:58,10,1,2023-09-09 21:48:17.0730,1694314097.073461,-0.002971288748085499,-0.005398227367550135,-0.005570267792791128,0.042724609375,-0.0669708251953125,-0.996978759765625,105.7996826171875,-26.746612548828125,-39.424468994140625,2023-09-09 21:48:13.3520,1694314093.352066,0.04850267246365547,-0.07486565411090851,0.010747397318482399,0.0668029859662056,0.984619140625,-0.2649078965187073,
1,2023-09-09 21:47:46.8590,02:58,10,1,2023-09-09 21:48:17.1680,1694314097.167809,-0.0005637911963276565,-0.0024349282030016184,0.0004319647268857807,0.042022705078125,-0.0667724609375,-0.997772216796875,105.81135559082031,-26.602371215820312,-40.744049072265625,2023-09-09 21:48:13.4520,1694314093.451871,-0.029799187555909157,-0.010753242298960686,0.08525285869836807,0.056365966796875,1.011993408203125,-0.2504883110523224,
1,2023-09-09 21:47:46.8590,02:58,10,1,2023-09-09 21:48:17.2600,1694314097.259773,-0.00256462418474257,-0.004381965380162001,-0.002856240142136812,0.0426025390625,-0.0671234130859375,-0.9976806640625,105.69166564941406,-26.891464233398438,-40.43605041503906,2023-09-09 21:48:13.5520,1694314093.551611,0.1396322399377823,-0.07767727971076965,0.00978629570454359,0.1172943189740181,0.9962157607078552,-0.2399597465991974,
1,2023-09-09 21:47:46.8590,02:58,10,1,2023-09-09 21:48:17.3720,1694314097.371602,-0.0006788397440686822,-0.0029883331153541803,-0.004908205941319466,0.0433807373046875,-0.0672607421875,-0.99847412109375,105.80012512207031,-26.411529541015625,-40.53120422363281,2023-09-09 21:48:13.6510,1694314093.6514912,0.03271825239062309,0.06973946839570999,0.004044421017169952,0.1055908203125,0.9397125244140625,-0.2265472561120987,
1,2023-09-09 21:47:46.8590,02:58,10,1,2023-09-09 21:48:17.4600,1694314097.460209,-0.0009755159262567759,-0.006417685654014349,-0.002603239845484495,0.0428619384765625,-0.066802978515625,-0.997772216796875,105.79251098632812,-26.567398071289062,-40.866241455078125,2023-09-09 21:48:13.7510,1694314093.751353,0.02615642175078392,-0.026770956814289093,-0.09490609914064407,0.09970090538263321,0.9918060302734375,-0.2443389594554901,
1,2023-09-09 21:47:46.8590,02:58,10,1,2023-09-09 21:48:17.5600,1694314097.560031,-0.00043595946044661105,-0.0046325684525072575,-0.0038903458043932915,0.0438995361328125,-0.065643310546875,-0.9985809326171875,105.57464599609375,-26.090072631835938,-40.50825500488281,2023-09-09 21:48:13.8510,1694314093.851187,-0.09760081022977829,0.020067652687430382,-0.07863477617502213,0.04351809620857239,1.000396728515625,-0.2992553114891052,
1,2023-09-09 21:47:46.8590,02:58,10,1,2023-09-09 21:48:17.6600,1694314097.660205,-0.0016200009267777205,-0.0047026099637150764,-0.0020064255222678185,0.0435028076171875,-0.0673370361328125,-0.9974365234375,105.56077575683594,-26.459457397460938,-40.458740234375,2023-09-09 21:48:13.9510,1694314093.951016,0.4104752540588379,-0.1493055373430252,-0.0419754683971405,0.07447817921638489,0.941802978515625,-0.2336731255054474,
1,2023-09-09 21:47:46.8590,02:58,10,1,2023-09-09 21:48:17.7610,1694314097.760926,-0.0007046724203974009,-0.0036812876351177692,-0.002886600326746702,0.043060302734375,-0.0664825439453125,-0.99713134765625,105.60714721679688,-26.390792846679688,-40.690948486328125,2023-09-09 21:48:14.0510,1694314094.0509849,0.03458452597260475,-0.001971602439880371,-0.0498197078704834,0.0613403394818306,0.98333740234375,-0.2426300048828125,
1,2023-09-09 21:47:46.8590,02:58,10,1,2023-09-09 21:48:17.8610,1694314097.861117,-0.0014626081101596355,-0.003163569141179323,-0.0019198728259652853,0.0438232421875,-0.0667877197265625,-0.9981689453125,105.59613037109375,-26.584213256835938,-40.71455383300781,2023-09-09 21:48:14.1510,1694314094.1507,-0.056610364466905594,0.11911381036043167,-0.033436473459005356,0.016998324543237686,0.9800109267234802,-0.22732537984848022,
1,2023-09-09 21:47:46.8590,02:58,10,1,2023-09-09 21:48:17.9610,1694314097.960922,-0.0015273229219019413,-0.005020058713853359,1.0918960470007733e-05,0.042694091796875,-0.0663909912109375,-0.997161865234375,105.56263732910156,-26.315353393554688,-40.723388671875,2023-09-09 21:48:14.2510,1694314094.250534,0.27542489767074585,-0.08097946643829346,-0.026660628616809845,0.10771181061863899,0.9757079482078552,-0.2401123046875,
1,2023-09-09 21:47:46.8590,02:58,10,1,2023-09-09 21:48:18.0720,1694314098.071957,5.5926382628967986e-05,-0.0026439863722771406,-0.0031755531672388315,0.04315185546875,-0.066650390625,-0.997650146484375,105.63995361328125,-26.447662353515625,-40.42570495605469,2023-09-09 21:48:14.3500,1694314094.350429,-0.1484169065952301,0.05089707300066948,0.002460772404447198,0.0630798414349556,0.9347838759422302,-0.2862090766429901,
1,2023-09-09 21:47:46.8590,02:58,10,1,2023-09-09 21:48:18.1590,1694314098.159408,-0.0009134642314165831,-0.006155364215373993,-0.004311391618102789,0.0430755615234375,-0.0671844482421875,-0.996978759765625,105.54335021972656,-26.288330078125,-40.62702941894531,2023-09-09 21:48:14.4500,1694314094.450228,-0.17628756165504456,0.05494853854179382,-0.0010871575213968754,0.036148104816675186,0.9351959228515625,-0.3019866645336151,
1,2023-09-09 21:47:46.8590,02:58,10,1,2023-09-09 21:48:18.2610,1694314098.260865,-0.00267780851572752,-0.00526720006018877,-0.003683950752019882,0.0429840087890625,-0.0672454833984375,-0.9975128173828125,105.83909606933594,-26.523605346679688,-40.5579833984375,2023-09-09 21:48:14.5500,1694314094.550064,0.07893561571836472,-0.053086187690496445,0.015685198828577995,0.0643310621380806,0.9239960312843323,-0.2627105712890625,
