SessionID,SessionDate,SessionDuration,SessionFrequency,RecordID,Timestamp,timeIntervalSince1970,GyroX,GyroY,GyroZ,AccX,AccY,AccZ,MagX,MagY,MagZ,WatchTimestamp,WatchtImeIntervalSince1970,WatchGyroX,WatchGyroY,WatchGyroZ,WatchAccX,WatchAccY,WatchAccZ
0,2023-09-09 16:28:40.2140,02:53,10,1,2023-09-09 16:28:40.3260,1694294920.325982,-0.0016793893883004785,-0.005381449591368437,-0.001689509372226894,0.1771087646484375,0.039093017578125,-0.98419189453125,123.70060729980469,-26.620803833007812,-37.402191162109375,2023-09-09 16:28:40.0920,1694294920.092063,0.04626322537660599,-0.053651124238967896,-0.030039004981517792,-0.1309508979320526,-0.4893340468406677,-0.8653106689453125,
0,2023-09-09 16:28:40.2140,02:53,10,1,2023-09-09 16:28:40.4260,1694294920.425528,-0.000934236915782094,-0.0043505397625267506,-0.0011938951211050153,0.176849365234375,0.0402374267578125,-0.98480224609375,123.71963500976562,-26.560791015625,-38.20562744140625,2023-09-09 16:28:40.2050,1694294920.204589,0.012351397424936295,0.011084331199526787,-0.07853414118289948,-0.1232910007238388,-0.4931182563304901,-0.8602294921875,
0,2023-09-09 16:28:40.2140,02:53,10,1,2023-09-09 16:28:40.5260,1694294920.5256371,0.0004474110610317439,-0.004093278665095568,-0.0006503439508378506,0.1774139404296875,0.0404205322265625,-0.9845733642578125,123.70626831054688,-26.558151245117188,-37.566864013671875,2023-09-09 16:28:40.2920,1694294920.2917771,0.028970787301659584,0.00900133978575468,-0.030467774718999863,-0.1138915941119194,-0.4752502143383026,-0.8559112548828125,
0,2023-09-09 16:28:40.2140,02:53,10,1,2023-09-09 16:28:40.6250,1694294920.625406,-0.00315957423299551,-0.005534048657864332,-0.002412823960185051,0.1761474609375,0.0406036376953125,-0.983917236328125,123.90516662597656,-26.331939697265625,-37.761932373046875,2023-09-09 16:28:40.3920,1694294920.391807,0.033152081072330475,-0.0066625745967030525,-0.02478785067796707,-0.1330413594841957,-0.483856201171875,-0.8757781982421875,
0,2023-09-09 16:28:40.2140,02:53,10,1,2023-09-09 16:28:40.7260,1694294920.725719,-0.00195129809435457,-0.00242107966914773,0.0001448759576305747,0.177001953125,0.0405731201171875,-0.98455810546875,123.90516662597656,-26.331939697265625,-37.761932373046875,2023-09-09 16:28:40.4920,1694294920.491627,0.0973038375377655,-0.006046718917787075,0.026433158665895462,-0.1124114990234375,-0.4861755073070526,-0.85595703125,
0,2023-09-09 16:28:40.2140,02:53,10,1,2023-09-09 16:28:40.8250,1694294920.8253021,-0.0010631339391693473,-0.004918059334158897,-0.0005997438565827906,0.1769866943359375,0.0401153564453125,-0.9848480224609375,123.87174987792969,-26.5960693359375,-37.53874206542969,2023-09-09 16:28:40.5920,1694294920.591522,0.023707713931798935,0.07203170657157898,-0.050659265369176865,-0.10066220909357071,-0.4814147651195526,-0.85302734375,
0,2023-09-09 16:28:40.2140,02:53,10,1,2023-09-09 16:28:40.9250,1694294920.925482,-0.0008250473183579743,-0.005771336145699024,-0.0036418726667761803,0.176788330078125,0.03985595703125,-0.9835968017578125,123.79931640625,-26.524337768554688,-38.142730712890625,2023-09-09 16:28:40.6910,1694294920.691324,-0.039838969707489014,0.06339786946773529,-0.01532114576548338,-0.1101837009191513,-0.4758758246898651,-0.85089111328125,
0,2023-09-09 16:28:40.2140,02:53,10,1,2023-09-09 16:28:41.0290,1694294921.029372,-0.003849599277600646,-0.004473844077438116,-0.001743571599945426,0.176910400390625,0.03973388671875,-0.984283447265625,123.66781616210938,-26.402496337890625,-38.73301696777344,2023-09-09 16:28:40.7910,1694294920.791201,-0.006549989338964224,0.008889087475836277,0.026099132373929024,-0.1077575534582138,-0.4987487494945526,-0.8717193603515625,
0,2023-09-09 16:28:40.2140,02:53,10,1,2023-09-09 16:28:41.1260,1694294921.1260362,0.000251402409048751,-0.0038754320703446865,-0.002385659608989954,0.1771392822265625,0.0405120849609375,-0.9842071533203125,123.66781616210938,-26.402496337890625,-38.73301696777344,2023-09-09 16:28:40.8910,1694294920.891045,0.0016738518606871367,0.011755181476473808,0.028236452490091324,-0.12130735069513321,-0.5025024116039276,-0.8729095458984375,
0,2023-09-09 16:28:40.2140,02:53,10,1,2023-09-09 16:28:41.2150,1694294921.215064,0.0005464806454256177,-0.005269064102321863,-0.003626959165558219,0.176727294921875,0.040283203125,-0.9836883544921875,123.63670349121094,-26.416885375976562,-38.76502990722656,2023-09-09 16:28:40.9910,1694294920.990758,-0.03771236911416054,0.02064254879951477,0.0014860306400805712,-0.1078643724322319,-0.4987487196922302,-0.8440704345703125,
0,2023-09-09 16:28:40.2140,02:53,10,1,2023-09-09 16:28:41.3160,1694294921.3161469,0.0013494236627593637,-0.003343865042552352,-0.004193946253508329,0.1767730712890625,0.0405120849609375,-0.9853057861328125,123.71882629394531,-26.522964477539062,-38.85475158691406,2023-09-09 16:28:41.0910,1694294921.0908232,-0.0639248639345169,-0.005845117382705212,-0.015590391121804714,-0.1016998142004013,-0.5109557807445526,-0.83709716796875,
0,2023-09-09 16:28:40.2140,02:53,10,1,2023-09-09 16:28:41.4160,1694294921.4160218,-0.0009749832679517567,-0.0064773401245474815,-0.0013201289111748338,0.1766357421875,0.0413055419921875,-0.9844818115234375,123.66224670410156,-26.320663452148438,-38.735198974609375,2023-09-09 16:28:41.1910,1694294921.19069,-0.04694727808237076,0.004609254188835621,0.01002885214984417,-0.1122741624712944,-0.5008086562156677,-0.860443115234375,
0,2023-09-09 16:28:40.2140,02:53,10,1,2023-09-09 16:28:41.5150,1694294921.515363,0.0003528688393998891,-0.006347644608467817,-0.0022533005103468895,0.17657470703125,0.0400390625,-0.984161376953125,123.73837280273438,-26.420669555664062,-38.78851318359375,2023-09-09 16:28:41.2900,1694294921.290441,0.001040618633851409,-0.006037264131009579,0.02201407589018345,-0.1072387620806694,-0.4956512451171875,-0.8565826416015625,
0,2023-09-09 16:28:40.2140,02:53,10,1,2023-09-09 16:28:41.6150,1694294921.615473,0.0008942894637584686,-0.0037790255155414343,-0.004187288228422403,0.1774139404296875,0.0414276123046875,-0.984130859375,123.52908325195312,-26.519500732421875,-38.70817565917969,2023-09-09 16:28:41.3900,1694294921.390184,0.011836408637464046,0.001160460989922285,-0.0015638878103345633,-0.1086273118853569,-0.4953460097312927,-0.8616790771484375,
0,2023-09-09 16:28:40.2140,02:53,10,1,2023-09-09 16:28:41.7160,1694294921.7159371,0.000401604687795043,-0.005112203769385815,-0.00367116741836071,0.1771697998046875,0.0408935546875,-0.9854583740234375,123.76988220214844,-26.43414306640625,-38.49708557128906,2023-09-09 16:28:41.4900,1694294921.490129,0.021865805611014366,0.013222583569586277,-0.01316831260919571,-0.10809323936700821,-0.4903411269187927,-0.8594512939453125,
0,2023-09-09 16:28:40.2140,02:53,10,1,2023-09-09 16:28:41.8160,1694294921.81581,-0.0027449200861155987,-0.002231728984043002,-0.0008564725867472589,0.176788330078125,0.0407867431640625,-0.9837188720703125,123.72541809082031,-26.398162841796875,-38.70527648925781,2023-09-09 16:28:41.5900,1694294921.5899448,-0.0036908863112330437,0.009820261970162392,0.011281469836831093,-0.10897824913263321,-0.4917907416820526,-0.8592987060546875,
0,2023-09-09 16:28:40.2140,02:53,10,1,2023-09-09 16:28:41.9290,1694294921.929472,-0.0016010924009606242,-0.004683434963226318,0.0012514194240793586,0.177490234375,0.0407257080078125,-0.9851531982421875,123.47509765625,-26.300384521484375,-38.69268798828125,2023-09-09 16:28:41.6900,1694294921.6897578,0.029112933203577995,-0.007244609296321869,-0.0014215753180906177,-0.10847470164299011,-0.4941863417625427,-0.8551788330078125,
0,2023-09-09 16:28:40.2140,02:53,10,1,2023-09-09 16:28:42.0150,1694294922.0149698,0.000570981705095619,-0.003707120195031166,-0.0035747610963881016,0.1778411865234375,0.0402374267578125,-0.98590087890625,123.4927978515625,-26.311248779296875,-38.31329345703125,2023-09-09 16:28:41.7900,1694294921.789678,-3.649666905403137e-05,0.003304039128124714,0.007519622333347797,-0.1090698093175888,-0.4928741157054901,-0.853546142578125,
0,2023-09-09 16:28:40.2140,02:53,10,1,2023-09-09 16:28:42.1150,1694294922.1151462,-0.0017856494523584843,-0.004664793144911528,-0.0026402578223496675,0.1776123046875,0.040985107421875,-0.9857330322265625,123.61148071289062,-26.615463256835938,-38.313323974609375,2023-09-09 16:28:41.8900,1694294921.889534,0.01229347288608551,-0.015639690682291985,0.007759938947856426,-0.11422727257013321,-0.4947662055492401,-0.8500824570655823,
0,2023-09-09 16:28:40.2140,02:53,10,1,2023-09-09 16:28:42.2160,1694294922.2159219,0.00031318774563260376,-0.005646966863423586,-0.001508414396084845,0.17657470703125,0.0409393310546875,-0.984161376953125,123.55543518066406,-26.2366943359375,-38.39854431152344,2023-09-09 16:28:41.9890,1694294921.9893808,0.018771346658468246,-0.014019690454006195,0.01689537987112999,-0.1139526218175888,-0.4925841689109802,-0.854705810546875,
0,2023-09-09 16:28:40.2140,02:53,10,1,2023-09-09 16:28:42.3160,1694294922.315888,0.0005195827106945217,-0.004602475091814995,-0.0017417073249816895,0.1774444580078125,0.0402374267578125,-0.98382568359375,123.56022644042969,-26.068313598632812,-39.570159912109375,2023-09-09 16:28:42.0890,1694294922.08921,0.009242555126547813,-0.00027564819902181625,-0.005637892056256533,-0.11012265831232071,-0.4961242377758026,-0.858795166015625,
0,2023-09-09 16:28:40.2140,02:53,10,1,2023-09-09 16:28:42.4150,1694294922.415256,-0.0015110776294022799,-0.0033486587926745415,-0.0011765845119953156,0.177001953125,0.0403900146484375,-0.984619140625,123.54258728027344,-26.005340576171875,-39.560791015625,2023-09-09 16:28:42.1890,1694294922.1889129,-0.024753227829933167,0.016013577580451965,0.007304538507014513,-0.1149597018957138,-0.4995116889476776,-0.861724853515625,
0,2023-09-09 16:28:40.2140,02:53,10,1,2023-09-09 16:28:42.5160,1694294922.516331,-0.00015632755821570754,-0.0008346347021870315,-0.002344646956771612,0.1775360107421875,0.040130615234375,-0.9842681884765625,123.42427062988281,-25.929672241210938,-39.11724853515625,2023-09-09 16:28:42.2890,1694294922.288683,-0.0202623400837183,0.00698013324290514,0.0029496042989194393,-0.1115722581744194,-0.4997558295726776,-0.849151611328125,
0,2023-09-09 16:28:40.2140,02:53,10,1,2023-09-09 16:28:42.6160,1694294922.615721,-0.0016146745765581727,-0.0029728866647928953,-0.0029079054947942495,0.176727294921875,0.0408782958984375,-0.984161376953125,123.49369812011719,-26.066909790039062,-39.721527099609375,2023-09-09 16:28:42.3890,1694294922.388805,-0.028512679040431976,0.008080018684267998,0.014227491803467274,-0.1139983981847763,-0.5064391791820526,-0.85009765625,
0,2023-09-09 16:28:40.2140,02:53,10,1,2023-09-09 16:28:42.7160,1694294922.715742,-0.003680488560348749,-0.0049825082533061504,2.6631610694494157e-07,0.1774139404296875,0.039642333984375,-0.9852752685546875,123.44952392578125,-26.012847900390625,-39.74345397949219,2023-09-09 16:28:42.4890,1694294922.488631,-0.025075070559978485,-0.002816038206219673,0.0023784227669239044,-0.11964414268732071,-0.5079497992992401,-0.846832275390625,
0,2023-09-09 16:28:40.2140,02:53,10,1,2023-09-09 16:28:42.8160,1694294922.8160691,-0.001285241567529738,-0.0035537220537662506,-0.002270611235871911,0.1767120361328125,0.0400390625,-0.985382080078125,123.4151611328125,-25.742568969726562,-39.79023742675781,2023-09-09 16:28:42.5890,1694294922.5885859,-0.0003109355457127094,-0.031318388879299164,-0.005983736831694841,-0.12205503135919571,-0.5030669867992401,-0.848876953125,
0,2023-09-09 16:28:40.2140,02:53,10,1,2023-09-09 16:28:42.9160,1694294922.9160051,0.0021558289881795645,-0.004840295296162367,-0.0016170714516192675,0.17724609375,0.0407257080078125,-0.983734130859375,123.51289367675781,-25.988021850585938,-39.829193115234375,2023-09-09 16:28:42.6880,1694294922.688149,0.022472606971859932,-0.060123004019260406,-0.01324467919766903,-0.1126403734087944,-0.4947967231273651,-0.8536835312843323,
0,2023-09-09 16:28:40.2140,02:53,10,1,2023-09-09 16:28:43.0160,1694294923.016348,0.003715642262250185,-0.004147340543568134,-0.003308444982394576,0.177398681640625,0.040802001953125,-0.984100341796875,123.45745849609375,-26.015548706054688,-39.87567138671875,2023-09-09 16:28:42.7880,1694294922.788128,0.001190022099763155,-0.04207116737961769,-0.040412817150354385,-0.10774228721857071,-0.4916839599609375,-0.8537445068359375,
0,2023-09-09 16:28:40.2140,02:53,10,1,2023-09-09 16:28:43.1260,1694294923.126223,0.0016407734947279096,-0.003742806613445282,-0.0025249430909752846,0.177215576171875,0.040557861328125,-0.9837493896484375,123.48826599121094,-26.12274169921875,-39.82023620605469,2023-09-09 16:28:42.8880,1694294922.88779,-0.031768061220645905,-0.06739170104265213,-0.08442268520593643,-0.11695858836174011,-0.4901580214500427,-0.8440704345703125,
0,2023-09-09 16:28:40.2140,02:53,10,1,2023-09-09 16:28:43.2160,1694294923.2158818,-0.001985120354220271,-0.0031135017052292824,-0.0012274509062990546,0.1764373779296875,0.0409393310546875,-0.9846649169921875,123.35383605957031,-26.01336669921875,-39.60856628417969,2023-09-09 16:28:42.9880,1694294922.987751,-0.18516626954078674,-0.04591703787446022,-0.18580862879753113,-0.1218566820025444,-0.4867400825023651,-0.8446502685546875,
0,2023-09-09 16:28:40.2140,02:53,10,1,2023-09-09 16:28:43.3160,1694294923.315964,0.0017563547007739544,-0.0057042245753109455,-0.0007483482477255166,0.1768798828125,0.040496826171875,-0.9855804443359375,123.46209716796875,-26.04742431640625,-39.26582336425781,2023-09-09 16:28:43.0880,1694294923.087963,-0.4244191348552704,-0.092570960521698,-0.5276707410812378,-0.1706542819738388,-0.4672393500804901,-0.8008880615234375,
0,2023-09-09 16:28:40.2140,02:53,10,1,2023-09-09 16:28:43.4160,1694294923.416089,4.846953015658073e-05,-0.004459463059902191,-0.00304718897677958,0.176422119140625,0.0401611328125,-0.98516845703125,123.56059265136719,-26.04742431640625,-39.12335205078125,2023-09-09 16:28:43.1870,1694294923.187449,-0.7533205151557922,-0.282952219247818,-1.0191277265548706,-0.1965484544634819,-0.4082488715648651,-0.773956298828125,
0,2023-09-09 16:28:40.2140,02:53,10,1,2023-09-09 16:28:43.5160,1694294923.516391,-0.0013321131700649858,-0.005023254547268152,-0.002683134749531746,0.177734375,0.041259765625,-0.98480224609375,123.41877746582031,-26.27276611328125,-39.103546142578125,2023-09-09 16:28:43.2870,1694294923.287169,-1.1649137735366821,-0.42889371514320374,-1.7003902196884155,-0.2502899169921875,-0.4196166694164276,-0.820953369140625,
0,2023-09-09 16:28:40.2140,02:53,10,1,2023-09-09 16:28:43.6290,1694294923.62853,-0.0015925703337416053,-0.0024618261959403753,-0.001187237212434411,0.1768646240234375,0.0406951904296875,-0.9847412109375,123.42726135253906,-26.273712158203125,-39.20631408691406,2023-09-09 16:28:43.3870,1694294923.3871279,-1.3261936902999878,-0.49150902032852173,-2.283578872680664,-0.2662353590130806,-0.2784270793199539,-0.954193115234375,
0,2023-09-09 16:28:40.2140,02:53,10,1,2023-09-09 16:28:43.7160,1694294923.71599,-0.0015017564874142408,-0.0016793893883004785,-0.00443922309204936,0.176513671875,0.04058837890625,-0.9837493896484375,123.52374267578125,-26.200714111328125,-39.08197021484375,2023-09-09 16:28:43.4870,1694294923.48674,-0.8714507818222046,-0.6864275336265564,-2.2363390922546387,-0.263458251953125,-0.06376643478870392,-1.0755004286766052,
0,2023-09-09 16:28:40.2140,02:53,10,1,2023-09-09 16:28:43.8160,1694294923.8159518,-0.0035241609439253807,-0.004576908424496651,-0.0032080437522381544,0.1773223876953125,0.041015625,-0.986175537109375,123.40631103515625,-26.140838623046875,-39.326141357421875,2023-09-09 16:28:43.5870,1694294923.586769,-0.5345589518547058,-0.16146692633628845,-2.079162359237671,-0.09608462452888489,0.16328433901071548,-1.39324951171875,
0,2023-09-09 16:28:40.2140,02:53,10,1,2023-09-09 16:28:43.9170,1694294923.916517,-0.0014751249691471457,-0.002951581496745348,-0.004760400392115116,0.1766204833984375,0.0404510498046875,-0.9847412109375,123.45783996582031,-26.16815185546875,-39.18695068359375,2023-09-09 16:28:43.6870,1694294923.686548,-0.49862104654312134,-0.4200606644153595,-1.4868470430374146,-0.1588592827320099,-0.013229332864284515,-0.9352568984031677,
0,2023-09-09 16:28:40.2140,02:53,10,1,2023-09-09 16:28:44.0160,1694294924.016004,-0.0015033544041216373,-0.003925765864551067,-0.0009725864510983229,0.176422119140625,0.04010009765625,-0.9845733642578125,123.54544067382812,-26.356307983398438,-39.37907409667969,2023-09-09 16:28:43.7870,1694294923.786508,-2.2638237476348877,-0.08223283290863037,-0.7913947105407715,0.0019988566637039185,0.07380679249763489,-1.0259552001953125,
0,2023-09-09 16:28:40.2140,02:53,10,1,2023-09-09 16:28:44.1160,1694294924.115893,0.0002567287301644683,-0.005902896635234356,-0.0015017564874142408,0.1773834228515625,0.04010009765625,-0.9852447509765625,123.56132507324219,-26.088760375976562,-39.24311828613281,2023-09-09 16:28:43.8860,1694294923.886197,0.37242940068244934,0.011264626868069172,-0.2884008288383484,0.13560481369495392,0.3680877983570099,-0.8961334228515625,
0,2023-09-09 16:28:40.2140,02:53,10,1,2023-09-09 16:28:44.2160,1694294924.216216,-0.0003557983145583421,-0.0057739997282624245,-0.0023257385473698378,0.1764373779296875,0.0402069091796875,-0.9864349365234375,123.65110778808594,-26.199081420898438,-39.61956787109375,2023-09-09 16:28:43.9860,1694294923.986143,-0.3787347376346588,0.23287026584148407,-0.3480481207370758,0.06524653732776642,-0.05764767527580261,-0.9444732069969177,
0,2023-09-09 16:28:40.2140,02:53,10,1,2023-09-09 16:28:44.3160,1694294924.316136,0.0008823052630759776,-0.003561445279046893,-0.0021869877818971872,0.176971435546875,0.0406646728515625,-0.98468017578125,123.67301940917969,-26.17242431640625,-39.34446716308594,2023-09-09 16:28:44.0860,1694294924.085979,0.629768431186676,-0.40284213423728943,-0.5839136242866516,-0.1847076714038849,0.1852112114429474,-1.064361572265625,
0,2023-09-09 16:28:40.2140,02:53,10,1,2023-09-09 16:28:44.4160,1694294924.415958,-0.0015515576815232635,-0.002651443239301443,-0.00239205127581954,0.1768035888671875,0.04150390625,-0.983795166015625,123.5208740234375,-26.432647705078125,-39.394561767578125,2023-09-09 16:28:44.1860,1694294924.185828,-1.4777016639709473,-0.06441029906272888,-0.08014238625764847,-0.1444549858570099,0.2533417344093323,-0.87835693359375,
0,2023-09-09 16:28:40.2140,02:53,10,1,2023-09-09 16:28:44.5160,1694294924.515796,0.00088976213010028,-0.00392736354842782,-0.0035830168053507805,0.1762847900390625,0.040252685546875,-0.985595703125,123.48744201660156,-26.090896606445312,-39.09075927734375,2023-09-09 16:28:44.2860,1694294924.285565,-0.4172242283821106,-0.22027991712093353,0.2716791331768036,-0.10903936624526978,0.4922638237476349,-0.9758757948875427,
0,2023-09-09 16:28:40.2140,02:53,10,1,2023-09-09 16:28:44.6160,1694294924.61602,-0.00040719733806326985,-0.00586534570902586,-0.0019489012192934752,0.1762237548828125,0.0405731201171875,-0.98529052734375,123.43780517578125,-26.255508422851562,-38.927642822265625,2023-09-09 16:28:44.3850,1694294924.3853931,-0.11376006156206131,-0.048126526176929474,0.38928771018981934,-0.13328557461500168,0.5787353813648224,-0.9897918701171875,
0,2023-09-09 16:28:40.2140,02:53,10,1,2023-09-09 16:28:44.7160,1694294924.715878,-0.0016098808264359832,-0.0038370825350284576,-0.002360359765589237,0.1768035888671875,0.0402984619140625,-0.9857330322265625,123.41192626953125,-26.219970703125,-39.262969970703125,2023-09-09 16:28:44.4850,1694294924.4853191,-0.06357266753911972,-0.07860161364078522,0.3373015522956848,-0.19764713197946548,0.4259033501148224,-0.919830322265625,
0,2023-09-09 16:28:40.2140,02:53,10,1,2023-09-09 16:28:44.8160,1694294924.8161058,-0.0010695254895836115,-0.006327936891466379,-0.003209908027201891,0.1775054931640625,0.040435791015625,-0.9857940673828125,123.46649169921875,-26.349029541015625,-39.1812744140625,2023-09-09 16:28:44.5850,1694294924.585057,-0.13482527434825897,-0.09305378794670105,0.027997499331831932,-0.1477661430835724,0.4543762505054474,-0.9109191298484802,
0,2023-09-09 16:28:40.2140,02:53,10,1,2023-09-09 16:28:44.9160,1694294924.916006,-0.00027057717670686543,-0.004117513541132212,-0.0013978932984173298,0.177642822265625,0.0409088134765625,-0.985382080078125,123.496826171875,-26.193939208984375,-38.978790283203125,2023-09-09 16:28:44.6850,1694294924.685014,0.09452016651630402,-0.16485634446144104,-0.04043075814843178,-0.08895879983901978,0.5815887749195099,-0.8715362548828125,
0,2023-09-09 16:28:40.2140,02:53,10,1,2023-09-09 16:28:45.0160,1694294925.016127,-0.0009704558760859072,-0.002639458980411291,-0.0028429245576262474,0.1767730712890625,0.040191650390625,-0.9857940673828125,123.42640686035156,-26.203094482421875,-39.10203552246094,2023-09-09 16:28:44.7850,1694294924.785156,-0.1597309559583664,0.00839200895279646,-0.07994384318590164,-0.1258545219898224,0.35980224609375,-0.8789519667625427,
0,2023-09-09 16:28:40.2140,02:53,10,1,2023-09-09 16:28:45.1160,1694294925.116181,-0.0023792681749910116,-0.005331382155418396,-0.001061802264302969,0.1768035888671875,0.0402374267578125,-0.9845123291015625,123.4969482421875,-26.02337646484375,-39.07176208496094,2023-09-09 16:28:44.8850,1694294924.884945,-0.3962242007255554,0.23290874063968658,0.08771039545536041,-0.11166390031576157,0.5166474282741547,-0.8825072050094604,
0,2023-09-09 16:28:40.2140,02:53,10,1,2023-09-09 16:28:45.2160,1694294925.216263,-0.0002657834847923368,-0.005629922728985548,-0.004501541145145893,0.17669677734375,0.040863037109375,-0.9842529296875,123.44931030273438,-26.092041015625,-39.01518249511719,2023-09-09 16:28:44.9840,1694294924.984483,0.24084775149822235,0.16365723311901093,0.1261567920446396,-0.10717778652906418,0.4487610161304474,-0.9031829237937927,
0,2023-09-09 16:28:40.2140,02:53,10,1,2023-09-09 16:28:45.3160,1694294925.315556,-0.001243962557055056,-0.005362540949136019,-0.0007773766992613673,0.1766357421875,0.03985595703125,-0.98565673828125,123.69656372070312,-26.30950927734375,-38.69659423828125,2023-09-09 16:28:45.0840,1694294925.084398,-0.17639794945716858,0.15138298273086548,-0.029856912791728973,-0.09770207107067108,0.4153900146484375,-0.8932189345359802,
0,2023-09-09 16:28:40.2140,02:53,10,1,2023-09-09 16:28:45.4160,1694294925.415934,0.0004487426485866308,-0.0021086910273879766,-0.003272492438554764,0.1770172119140625,0.0395355224609375,-0.9838104248046875,123.48777770996094,-25.97613525390625,-38.75823974609375,2023-09-09 16:28:45.1840,1694294925.184241,-0.12455572187900543,0.11048655211925507,-0.015246043913066387,-0.04411318153142929,0.4694824516773224,-0.8796843886375427,
0,2023-09-09 16:28:40.2140,02:53,10,1,2023-09-09 16:28:45.5160,1694294925.5161939,0.00010386328358436003,-0.0038301581516861916,-0.005022189114242792,0.1769866943359375,0.0401458740234375,-0.983642578125,123.59901428222656,-26.110702514648438,-38.77351379394531,2023-09-09 16:28:45.2840,1694294925.283887,-0.3632580637931824,0.023534875363111496,-0.009427170269191265,-0.04920963943004608,0.4630737602710724,-0.8755645155906677,
0,2023-09-09 16:28:40.2140,02:53,10,1,2023-09-09 16:28:45.6160,1694294925.6164021,-0.0029257487040013075,-0.005507417023181915,-0.002231728984043002,0.1770477294921875,0.0400238037109375,-0.98345947265625,123.59027099609375,-26.156890869140625,-38.734100341796875,2023-09-09 16:28:45.3840,1694294925.383961,-0.10052202641963959,0.05232817679643631,0.011881713755428791,-0.06776431947946548,0.4920806884765625,-0.87255859375,
0,2023-09-09 16:28:40.2140,02:53,10,1,2023-09-09 16:28:45.7160,1694294925.716103,-0.0006508765509352088,-0.00606321869418025,-0.0016351809026673436,0.17633056640625,0.0407867431640625,-0.983978271484375,123.55062866210938,-26.086105346679688,-39.01417541503906,2023-09-09 16:28:45.4840,1694294925.48366,-0.006014760583639145,0.014395572245121002,0.013600017875432968,-0.05552677810192108,0.5054168701171875,-0.8599395155906677,
0,2023-09-09 16:28:40.2140,02:53,10,1,2023-09-09 16:28:45.8160,1694294925.8160748,-0.0009036105475388467,-0.006592655088752508,-0.004548945464193821,0.17620849609375,0.0411834716796875,-0.9853515625,123.6246337890625,-26.049911499023438,-39.1851806640625,2023-09-09 16:28:45.5840,1694294925.583617,-0.07379034906625748,0.0348459854722023,0.01872047781944275,-0.048828158527612686,0.5001068115234375,-0.8589324951171875,
0,2023-09-09 16:28:40.2140,02:53,10,1,2023-09-09 16:28:45.9160,1694294925.9159842,-0.002424541860818863,-0.005343366414308548,-0.0009286442655138671,0.177398681640625,0.0408477783203125,-0.9854278564453125,123.62057495117188,-26.208465576171875,-39.00920104980469,2023-09-09 16:28:45.6830,1694294925.683364,0.03678470104932785,0.005424315109848976,0.025782348588109016,-0.05563359707593918,0.5065155625343323,-0.8574523329734802,
0,2023-09-09 16:28:40.2140,02:53,10,1,2023-09-09 16:28:46.0160,1694294926.016141,-0.0008375641773454845,-0.005221393425017595,-0.004156395327299833,0.17730712890625,0.0402374267578125,-0.9867095947265625,123.78523254394531,-25.949722290039062,-39.33891296386719,2023-09-09 16:28:45.7840,1694294925.7836552,-0.020006941631436348,0.010931998491287231,0.013750320300459862,-0.05026250705122948,0.5081634521484375,-0.8527526259422302,
0,2023-09-09 16:28:40.2140,02:53,10,1,2023-09-09 16:28:46.1160,1694294926.116199,-0.0013281183782964945,-0.004862399306148291,-0.003157177474349737,0.176971435546875,0.039947509765625,-0.98626708984375,123.58306884765625,-25.923629760742188,-38.717254638671875,2023-09-09 16:28:45.8830,1694294925.88302,-0.0095823984593153,-0.0024298792704939842,-0.004980556666851044,-0.048706091940402985,0.5074462890625,-0.861328125,
0,2023-09-09 16:28:40.2140,02:53,10,1,2023-09-09 16:28:46.2160,1694294926.2162771,-0.003955326974391937,-0.005275722127407789,-0.00126766471657902,0.1768341064453125,0.0398406982421875,-0.9873199462890625,123.43745422363281,-26.060348510742188,-38.71919250488281,2023-09-09 16:28:45.9830,1694294925.9829879,-0.01603543758392334,0.00701435562223196,0.0002728942781686783,-0.049087584018707275,0.5088348388671875,-0.856170654296875,
0,2023-09-09 16:28:40.2140,02:53,10,1,2023-09-09 16:28:46.3170,1694294926.316934,0.00035686357296071947,-0.002683667466044426,-0.0012668657582253218,0.176727294921875,0.040771484375,-0.984619140625,123.40486145019531,-26.032501220703125,-38.93479919433594,2023-09-09 16:28:46.0830,1694294926.0829082,0.010586253367364407,-0.00036406517028808594,0.002433816436678171,-0.04919436573982239,0.5178223252296448,-0.8570556044578552,
0,2023-09-09 16:28:40.2140,02:53,10,1,2023-09-09 16:28:46.4160,1694294926.416184,0.0003502056933939457,-0.004343615844845772,-0.002148372121155262,0.1763153076171875,0.041290283203125,-0.984130859375,123.36703491210938,-26.131942749023438,-38.931915283203125,2023-09-09 16:28:46.1830,1694294926.182534,-0.02466953918337822,0.013806747272610664,0.007552578579634428,-0.049148596823215485,0.5059204697608948,-0.8547515869140625,
0,2023-09-09 16:28:40.2140,02:53,10,1,2023-09-09 16:28:46.5160,1694294926.515934,0.0009744506096467376,-0.0043838294222950935,-0.004771585576236248,0.177154541015625,0.0414886474609375,-0.984130859375,123.40382385253906,-26.140625,-38.45741271972656,2023-09-09 16:28:46.2820,1694294926.282484,0.02410132996737957,-0.005161350592970848,-0.0005927662132307887,-0.046447791159152985,0.5249786972999573,-0.8518524169921875,
0,2023-09-09 16:28:40.2140,02:53,10,1,2023-09-09 16:28:46.6160,1694294926.616157,-9.267800487577915e-05,-0.006895989179611206,-0.0020277309231460094,0.1763916015625,0.039703369140625,-0.9852447509765625,123.43330383300781,-26.067276000976562,-38.72950744628906,2023-09-09 16:28:46.3830,1694294926.3825278,-0.046575967222452164,0.008447269909083843,0.001686333678662777,-0.049362216144800186,0.5066681504249573,-0.8560027480125427,
0,2023-09-09 16:28:40.2140,02:53,10,1,2023-09-09 16:28:46.7160,1694294926.716088,0.0003414172388147563,-0.006232596002519131,-0.0006314354832284153,0.1764373779296875,0.040863037109375,-0.98382568359375,123.41183471679688,-26.178787231445312,-38.657958984375,2023-09-09 16:28:46.4820,1694294926.48206,-0.00017258431762456894,0.0021825823932886124,0.0022855782881379128,-0.04718022048473358,0.5148773193359375,-0.8524321913719177,
0,2023-09-09 16:28:40.2140,02:53,10,1,2023-09-09 16:28:46.8160,1694294926.816094,-0.0010847054654732347,-0.0021875204984098673,-0.004560663364827633,0.1768951416015625,0.0403289794921875,-0.9845428466796875,123.40577697753906,-26.022415161132812,-38.74467468261719,2023-09-09 16:28:46.5820,1694294926.581962,-0.027520984411239624,0.00347714452072978,0.005215920973569155,-0.047699034214019775,0.5130615234375,-0.8548583984375,
0,2023-09-09 16:28:40.2140,02:53,10,1,2023-09-09 16:28:46.9160,1694294926.916326,-0.0013281183782964945,-0.0016346483025699854,-0.0020775320008397102,0.1763916015625,0.0403289794921875,-0.984161376953125,123.44874572753906,-26.085739135742188,-38.571563720703125,2023-09-09 16:28:46.6820,1694294926.6817431,0.016723642125725746,-0.005859764292836189,-0.0012154465075582266,-0.04490663856267929,0.5205078721046448,-0.8530272841453552,
0,2023-09-09 16:28:40.2140,02:53,10,1,2023-09-09 16:28:47.0170,1694294927.016845,0.0008767126128077507,-0.0043678502552211285,-0.0014583469601348042,0.176177978515625,0.040740966796875,-0.98492431640625,123.57691955566406,-26.0819091796875,-38.744415283203125,2023-09-09 16:28:46.7820,1694294926.781777,-0.0012208709958940744,-0.010336006060242653,-0.007426537573337555,-0.045257601886987686,0.516754150390625,-0.8543090224266052,
0,2023-09-09 16:28:40.2140,02:53,10,1,2023-09-09 16:28:47.1160,1694294927.116298,-0.000589091214351356,-0.003079146845266223,-0.0020991035271435976,0.1771392822265625,0.0404510498046875,-0.98565673828125,123.53285217285156,-26.112197875976562,-38.958648681640625,2023-09-09 16:28:46.8820,1694294926.881954,-0.07341670244932175,0.00487929955124855,-0.0030768299475312233,-0.044937193393707275,0.493896484375,-0.859130859375,
0,2023-09-09 16:28:40.2140,02:53,10,1,2023-09-09 16:28:47.2160,1694294927.215763,-0.0028764803428202868,-0.005535380449146032,0.0003656520275399089,0.1772613525390625,0.0406951904296875,-0.9852447509765625,123.61662292480469,-26.363143920898438,-38.618499755859375,2023-09-09 16:28:46.9810,1694294926.981379,0.0031907218508422375,-0.00887832511216402,-0.00313275633379817,-0.04505924880504608,0.506561279296875,-0.8528136610984802,
0,2023-09-09 16:28:40.2140,02:53,10,1,2023-09-09 16:28:47.3160,1694294927.3160539,-0.00026844663079828024,-0.005758020561188459,-0.003725496120750904,0.1759490966796875,0.039947509765625,-0.984283447265625,123.672607421875,-26.100631713867188,-38.84564208984375,2023-09-09 16:28:47.0810,1694294927.081187,-0.04855995625257492,0.014849642291665077,-0.009261155501008034,-0.04675298184156418,0.5169678330421448,-0.8549804091453552,
0,2023-09-09 16:28:40.2140,02:53,10,1,2023-09-09 16:28:47.4280,1694294927.42837,-0.002459961920976639,-0.0028644960839301348,-4.660531703848392e-05,0.17645263671875,0.0409088134765625,-0.9849090576171875,123.70156860351562,-26.511260986328125,-38.81437683105469,2023-09-09 16:28:47.1810,1694294927.181014,0.022918952628970146,-0.010668369010090828,-0.007572678383439779,-0.04376225173473358,0.5215149521827698,-0.849853515625,
0,2023-09-09 16:28:40.2140,02:53,10,1,2023-09-09 16:28:47.5160,1694294927.516276,-2.4767397917457856e-05,-0.004479969386011362,-0.002341717481613159,0.1771392822265625,0.0409088134765625,-0.98529052734375,123.62762451171875,-26.256134033203125,-39.07659912109375,2023-09-09 16:28:47.2810,1694294927.28075,-0.008474589325487614,0.0013434207066893578,0.0011862919200211763,-0.04672245681285858,0.5203858017921448,-0.8490294814109802,
0,2023-09-09 16:28:40.2140,02:53,10,1,2023-09-09 16:28:47.6160,1694294927.616342,-0.003142263740301132,-0.003206978552043438,-0.0024053670931607485,0.17626953125,0.0409393310546875,-0.984222412109375,123.59230041503906,-26.307876586914062,-39.014434814453125,2023-09-09 16:28:47.3810,1694294927.380509,0.007014688104391098,-0.004332175478339195,0.001264022896066308,-0.04705815017223358,0.5179749131202698,-0.85076904296875,
0,2023-09-09 16:28:40.2140,02:53,10,1,2023-09-09 16:28:47.7180,1694294927.717582,0.0005291700945235789,-0.0034884747583419085,-0.0037494644057005644,0.17694091796875,0.0406646728515625,-0.9847259521484375,123.63113403320312,-26.233810424804688,-38.940948486328125,2023-09-09 16:28:47.4810,1694294927.480561,0.01964080147445202,-0.004280909895896912,-0.0010718689300119877,-0.050231967121362686,0.5219115614891052,-0.8513030409812927,
0,2023-09-09 16:28:40.2140,02:53,10,1,2023-09-09 16:28:47.8170,1694294927.816664,-0.0036754286848008633,-0.007312507834285498,-0.0006727144937030971,0.177154541015625,0.0414886474609375,-0.9871368408203125,123.41329956054688,-26.080154418945312,-38.78411865234375,2023-09-09 16:28:47.5800,1694294927.5804682,0.004301592707633972,0.006397434510290623,0.003295415546745062,-0.046356238424777985,0.5176697373390198,-0.847259521484375,
0,2023-09-09 16:28:40.2140,02:53,10,1,2023-09-09 16:28:47.9160,1694294927.916337,-0.0008580705034546554,-0.00446905056014657,-0.0043910201638937,0.176483154296875,0.0402069091796875,-0.98590087890625,123.639404296875,-26.15667724609375,-39.17359924316406,2023-09-09 16:28:47.6800,1694294927.680122,0.0016023460775613785,-0.010763444006443024,-0.008389802649617195,-0.04554754123091698,0.515960693359375,-0.8524169921875,
0,2023-09-09 16:28:40.2140,02:53,10,1,2023-09-09 16:28:48.0160,1694294928.0163279,-0.0015939018921926618,-0.0024410535115748644,-0.00013209278404247016,0.1764678955078125,0.0397491455078125,-0.9854888916015625,123.51948547363281,-26.321929931640625,-39.00898742675781,2023-09-09 16:28:47.7800,1694294927.7799,-0.021629072725772858,0.01032453216612339,0.002031878801062703,-0.046798743307590485,0.5161285996437073,-0.8503112196922302,
0,2023-09-09 16:28:40.2140,02:53,10,1,2023-09-09 16:28:48.1160,1694294928.116191,-0.0014434333425015211,-0.0052173989824950695,-0.004043743945658207,0.1769256591796875,0.0402374267578125,-0.9849853515625,123.51261901855469,-26.243499755859375,-39.04386901855469,2023-09-09 16:28:47.8800,1694294927.879987,0.021017322316765785,-0.00373030174523592,-0.004461240954697132,-0.04951481148600578,0.51800537109375,-0.8499144911766052,
0,2023-09-09 16:28:40.2140,02:53,10,1,2023-09-09 16:28:48.2160,1694294928.21613,-0.0014290522085502744,-0.007180947344750166,-0.0033369408920407295,0.1770477294921875,0.0406341552734375,-0.985992431640625,123.39035034179688,-26.22021484375,-38.956634521484375,2023-09-09 16:28:47.9800,1694294927.979714,0.007035061717033386,0.0012085307389497757,0.0017145632300525904,-0.048233065754175186,0.5199584364891052,-0.8518370985984802,
0,2023-09-09 16:28:40.2140,02:53,10,1,2023-09-09 16:28:48.3160,1694294928.316296,-0.0027206854429095984,-0.0049249837175011635,-0.002829342382028699,0.1765899658203125,0.040069580078125,-0.984954833984375,123.53263854980469,-26.181976318359375,-38.79974365234375,2023-09-09 16:28:48.0800,1694294928.07967,0.013282304629683495,-0.008021186105906963,-0.009028495289385319,-0.04556279256939888,0.5165863037109375,-0.8529815077781677,
0,2023-09-09 16:28:40.2140,02:53,10,1,2023-09-09 16:28:48.4170,1694294928.416586,0.0003049319493584335,-0.005333778914064169,-0.000672448193654418,0.1770477294921875,0.0407867431640625,-0.984100341796875,123.52919006347656,-26.380050659179688,-38.47515869140625,2023-09-09 16:28:48.1790,1694294928.179466,-0.01374052558094263,0.0027321260422468185,-0.002330112736672163,-0.04896549507975578,0.5081176161766052,-0.8535460829734802,
0,2023-09-09 16:28:40.2140,02:53,10,1,2023-09-09 16:28:48.5160,1694294928.5162868,0.00010226538870483637,-0.006176403257995844,-0.0018745990237221122,0.177154541015625,0.040435791015625,-0.9836578369140625,123.48429870605469,-26.219329833984375,-38.964447021484375,2023-09-09 16:28:48.2790,1694294928.2791228,-0.016808953136205673,0.0030619585886597633,-0.0021660951897501945,-0.04951481893658638,0.5099029541015625,-0.8521575331687927,
0,2023-09-09 16:28:40.2140,02:53,10,1,2023-09-09 16:28:48.6160,1694294928.6157851,-0.0021260015200823545,-0.0039044604636728764,-0.003275688039138913,0.1772003173828125,0.0403289794921875,-0.9834747314453125,123.51084899902344,-26.258255004882812,-38.682281494140625,2023-09-09 16:28:48.3790,1694294928.3790479,0.00707028154283762,-0.011323904618620872,-0.0033113874960690737,-0.04551701247692108,0.5198364853858948,-0.8538818359375,
0,2023-09-09 16:28:40.2140,02:53,10,1,2023-09-09 16:28:48.7280,1694294928.728428,-0.00028336033574305475,-0.0032807481475174427,-0.002639725338667631,0.177154541015625,0.040740966796875,-0.9845733642578125,123.58413696289062,-26.041702270507812,-38.87818908691406,2023-09-09 16:28:48.4790,1694294928.479051,-0.010423490777611732,-0.0017751418054103851,-0.000525188515894115,-0.04965214803814888,0.5112763047218323,-0.8531646728515625,
0,2023-09-09 16:28:40.2140,02:53,10,1,2023-09-09 16:28:48.8160,1694294928.816201,-0.00019228023302275687,-0.0035422705113887787,0.001377386855892837,0.1760406494140625,0.0402374267578125,-0.98443603515625,123.6949462890625,-26.082275390625,-38.50578308105469,2023-09-09 16:28:48.5790,1694294928.5788,0.001912870560772717,0.004577429965138435,3.470783121883869e-05,-0.04934694990515709,0.510833740234375,-0.851776123046875,
0,2023-09-09 16:28:40.2140,02:53,10,1,2023-09-09 16:28:48.9160,1694294928.9161382,-0.00036139096482656896,-0.0037353497464209795,-0.0024285365361720324,0.17669677734375,0.040008544921875,-0.984954833984375,123.64738464355469,-25.8359375,-39.045654296875,2023-09-09 16:28:48.6790,1694294928.678574,0.022158421576023102,0.0003798883408308029,0.0011749735567718744,-0.050323519855737686,0.5166016221046448,-0.8510589599609375,
0,2023-09-09 16:28:40.2140,02:53,10,1,2023-09-09 16:28:49.0170,1694294929.0165339,-0.0011669971281662583,-0.0006016080733388662,-0.0010370349045842886,0.176727294921875,0.040740966796875,-0.9845428466796875,123.5958251953125,-26.312210083007812,-38.91581726074219,2023-09-09 16:28:48.7790,1694294928.77861,-0.003615052904933691,0.0001619085669517517,0.002062172396108508,-0.04905704781413078,0.5239105224609375,-0.8544768691062927,
0,2023-09-09 16:28:40.2140,02:53,10,1,2023-09-09 16:28:49.1160,1694294929.1164598,-0.0027206854429095984,-0.004147873260080814,-0.0020058928057551384,0.17706298828125,0.040985107421875,-0.984771728515625,123.64285278320312,-26.052642822265625,-38.61570739746094,2023-09-09 16:28:48.8780,1694294928.8783379,-0.014568300917744637,0.0010992088355123997,-0.004822931252419949,-0.05088810622692108,0.5098724365234375,-0.85357666015625,
0,2023-09-09 16:28:40.2140,02:53,10,1,2023-09-09 16:28:49.2160,1694294929.2163801,-0.001496430253610015,-0.0018053569365292788,-0.0012173309223726392,0.176727294921875,0.0417327880859375,-0.9841156005859375,123.64285278320312,-26.052642822265625,-38.61570739746094,2023-09-09 16:28:48.9780,1694294928.978096,-0.015219245105981827,0.00016963202506303787,-0.0008830175502225757,-0.04702761769294739,0.50848388671875,-0.855682373046875,
0,2023-09-09 16:28:40.2140,02:53,10,1,2023-09-09 16:28:49.3170,1694294929.3167691,-0.0007808388327248394,-0.004453337751328945,-0.0025904567446559668,0.176971435546875,0.0409698486328125,-0.98492431640625,123.54525756835938,-26.069778442382812,-39.05513000488281,2023-09-09 16:28:49.0780,1694294929.077807,0.010405957698822021,0.0068397847935557365,0.006454257760196924,-0.048858679831027985,0.5136719346046448,-0.8502807021141052,
0,2023-09-09 16:28:40.2140,02:53,10,1,2023-09-09 16:28:49.4160,1694294929.416367,-0.0003001382574439049,-0.004186222795397043,-0.0006045375484973192,0.176971435546875,0.04046630859375,-0.9863739013671875,123.58113098144531,-26.3009033203125,-38.80560302734375,2023-09-09 16:28:49.1780,1694294929.177777,0.021066991612315178,-0.002478349953889847,0.0008788633276708424,-0.05088810250163078,0.5204010009765625,-0.8496246337890625,
0,2023-09-09 16:28:40.2140,02:53,10,1,2023-09-09 16:28:49.5170,1694294929.516636,0.0008386294357478619,-0.006322344299405813,-0.003091131104156375,0.177093505859375,0.0397491455078125,-0.98675537109375,123.60821533203125,-26.163330078125,-38.95416259765625,2023-09-09 16:28:49.2780,1694294929.277618,-0.01236014161258936,0.00574882049113512,0.0028208070434629917,-0.04890444874763489,0.5197449326515198,-0.8543700575828552,
0,2023-09-09 16:28:40.2140,02:53,10,1,2023-09-09 16:28:49.6170,1694294929.61687,-0.004628307651728392,-0.00441019469872117,-0.002388589084148407,0.1771392822265625,0.0410614013671875,-0.9856414794921875,123.42613220214844,-26.05474853515625,-38.66651916503906,2023-09-09 16:28:49.3770,1694294929.3774772,-0.009805170819163322,-0.0008935024961829185,-0.003090711310505867,-0.048431433737277985,0.5171814560890198,-0.8539275527000427,
0,2023-09-09 16:28:40.2140,02:53,10,1,2023-09-09 16:28:49.7290,1694294929.728651,-0.0034463966730982065,-0.006877879612147808,-0.0028730181511491537,0.177154541015625,0.0398712158203125,-0.98516845703125,123.43795776367188,-26.169296264648438,-38.45353698730469,2023-09-09 16:28:49.4770,1694294929.4773211,-0.043700020760297775,0.0064136795699596405,-0.003067675046622753,-0.04832462593913078,0.5054779052734375,-0.8544005751609802,
0,2023-09-09 16:28:40.2140,02:53,10,1,2023-09-09 16:28:49.8160,1694294929.816379,-0.0007574030314572155,-0.0029321403708308935,-0.003365170443430543,0.17669677734375,0.0407562255859375,-0.9843597412109375,123.43795776367188,-26.169296264648438,-38.45353698730469,2023-09-09 16:28:49.5770,1694294929.577188,0.00876837968826294,-0.005907968617975712,-0.0086872773244977,-0.04624941945075989,0.5106048583984375,-0.8526915311813354,
0,2023-09-09 16:28:40.2140,02:53,10,1,2023-09-09 16:28:49.9160,1694294929.9163551,-0.0017893778858706355,-0.0037409423384815454,0.0002966761530842632,0.1767578125,0.0410919189453125,-0.984222412109375,123.20458984375,-25.836776733398438,-38.79986572265625,2023-09-09 16:28:49.6770,1694294929.676964,0.019678885117173195,0.003511765506118536,0.004313176032155752,-0.04835515096783638,0.51104736328125,-0.8522338271141052,
0,2023-09-09 16:28:40.2140,02:53,10,1,2023-09-09 16:28:50.0170,1694294930.017146,-0.001112935016863048,-0.0057287258096039295,-0.0054906392470002174,0.176971435546875,0.0406951904296875,-0.9850006103515625,123.48410034179688,-25.984725952148438,-38.73265075683594,2023-09-09 16:28:49.7850,1694294929.78515,-0.0019829347729682922,0.002441041637212038,0.0006943062180653214,-0.04824833571910858,0.5143890380859375,-0.851654052734375,
0,2023-09-09 16:28:40.2140,02:53,10,1,2023-09-09 16:28:50.1170,1694294930.116568,-0.001112935016863048,-0.0057287258096039295,-0.0054906392470002174,0.176605224609375,0.040283203125,-0.985992431640625,123.30502319335938,-26.118026733398438,-38.91014099121094,2023-09-09 16:28:49.8770,1694294929.876741,-0.008620264008641243,-0.0022507812827825546,-0.002277947962284088,-0.045928992331027985,0.5208740830421448,-0.8524321913719177,
0,2023-09-09 16:28:40.2140,02:53,10,1,2023-09-09 16:28:50.2160,1694294930.216385,-0.00018562232435215265,-0.004240817856043577,-0.0009523464250378311,0.1767730712890625,0.039825439453125,-0.984954833984375,123.51457214355469,-26.108062744140625,-39.0084228515625,2023-09-09 16:28:49.9760,1694294929.976369,-0.03784213215112686,0.008379091508686543,0.0044604153372347355,-0.05169683322310448,0.50384521484375,-0.8564147353172302,
0,2023-09-09 16:28:40.2140,02:53,10,1,2023-09-09 16:28:50.3290,1694294930.328618,-0.0017624800093472004,-0.003306048223748803,1.5712650565546937e-05,0.1766510009765625,0.0399169921875,-0.9841156005859375,123.61236572265625,-26.319107055664062,-39.31646728515625,2023-09-09 16:28:50.0760,1694294930.0763512,0.03633476048707962,0.0005898782983422279,0.0031199799850583076,-0.04354863986372948,0.5211945176124573,-0.8502044677734375,
0,2023-09-09 16:28:40.2140,02:53,10,1,2023-09-09 16:28:50.4160,1694294930.4163861,-0.0017624800093472004,-0.003306048223748803,1.5712650565546937e-05,0.1771087646484375,0.041046142578125,-0.9849090576171875,123.46810913085938,-26.19012451171875,-39.520111083984375,2023-09-09 16:28:50.1760,1694294930.176178,0.012609856203198433,0.0049864910542964935,0.0031569311395287514,-0.04949954152107239,0.519805908203125,-0.8507843017578125,
0,2023-09-09 16:28:40.2140,02:53,10,1,2023-09-09 16:28:50.5160,1694294930.516334,-0.0022186795249581337,-0.0028597023338079453,-0.004312989301979542,0.1764678955078125,0.0405120849609375,-0.9849853515625,123.75294494628906,-26.430557250976562,-39.637176513671875,2023-09-09 16:28:50.2760,1694294930.276001,-0.006593998521566391,0.0023303874768316746,0.0034680217504501343,-0.04603581875562668,0.5226287841796875,-0.8503417372703552,
0,2023-09-09 16:28:40.2140,02:53,10,1,2023-09-09 16:28:50.6170,1694294930.617248,0.00017417073831893504,-0.005771602503955364,-0.0017979000695049763,0.17669677734375,0.04052734375,-0.9846954345703125,123.5802001953125,-26.194137573242188,-39.36610412597656,2023-09-09 16:28:50.3760,1694294930.375834,-0.006845334079116583,0.0019576777704060078,0.00047486170660704374,-0.04954534396529198,0.5151062607765198,-0.851959228515625,
0,2023-09-09 16:28:40.2140,02:53,10,1,2023-09-09 16:28:50.7260,1694294930.725851,-0.0019068233668804169,-0.003181145992130041,-0.00047617321251891553,0.1761474609375,0.0398406982421875,-0.984283447265625,123.57252502441406,-26.3231201171875,-39.166351318359375,2023-09-09 16:28:50.4760,1694294930.475748,-0.012876994907855988,-0.0016394536942243576,0.0006096843280829489,-0.04560857266187668,0.5161896347999573,-0.8524627089500427,
0,2023-09-09 16:28:40.2140,02:53,10,1,2023-09-09 16:28:50.8160,1694294930.8162951,-0.0019068233668804169,-0.003181145992130041,-0.00047617321251891553,0.1764678955078125,0.04022216796875,-0.9861907958984375,123.55709838867188,-26.14031982421875,-39.09346008300781,2023-09-09 16:28:50.5760,1694294930.5755029,0.006718211807310581,-0.002961047925055027,-0.0037863627076148987,-0.04551699757575989,0.5169677734375,-0.8510741591453552,
0,2023-09-09 16:28:40.2140,02:53,10,1,2023-09-09 16:28:50.9160,1694294930.9164681,-0.001680454588495195,-0.003531351685523987,-0.002734267385676503,0.1779022216796875,0.0407562255859375,-0.98455810546875,123.4476318359375,-26.058486938476562,-39.149169921875,2023-09-09 16:28:50.6750,1694294930.675468,0.004957130178809166,-0.0014205416664481163,3.3775693736970425e-05,-0.04374699294567108,0.5306397080421448,-0.8496703505516052,
0,2023-09-09 16:28:40.2140,02:53,10,1,2023-09-09 16:28:51.0160,1694294931.01646,-0.00048070057528093457,-0.004554271697998047,-0.0018498316640034318,0.1766815185546875,0.0406494140625,-0.98370361328125,123.53964233398438,-26.309432983398438,-39.05104064941406,2023-09-09 16:28:50.7810,1694294930.781066,-0.045127008110284805,0.009887905791401863,0.0006623815861530602,-0.05020146071910858,0.505950927734375,-0.8524169921875,
0,2023-09-09 16:28:40.2140,02:53,10,1,2023-09-09 16:28:51.1170,1694294931.1165571,0.00012596751912496984,-0.003942277282476425,-5.166532355360687e-05,0.1766510009765625,0.040740966796875,-0.9843292236328125,123.4176025390625,-25.900497436523438,-38.77581787109375,2023-09-09 16:28:50.8750,1694294930.8750181,0.002576330676674843,-0.001128259114921093,-0.0006967626977711916,-0.04272465407848358,0.5120391845703125,-0.8509674072265625,
0,2023-09-09 16:28:40.2140,02:53,10,1,2023-09-09 16:28:51.2170,1694294931.216511,-0.0032591766212135553,-0.003805124433711171,-0.0010338390711694956,0.17694091796875,0.04052734375,-0.9843292236328125,123.41767883300781,-26.16424560546875,-39.01123046875,2023-09-09 16:28:50.9750,1694294930.974815,0.010486318729817867,-0.0024228226393461227,-0.002056505996733904,-0.046463049948215485,0.5166473984718323,-0.8507537841796875,
0,2023-09-09 16:28:40.2140,02:53,10,1,2023-09-09 16:28:51.3160,1694294931.3163,0.0013440974289551377,-0.002916427794843912,-0.0017153420485556126,0.1768646240234375,0.0413055419921875,-0.986358642578125,123.4588623046875,-25.93133544921875,-39.21498107910156,2023-09-09 16:28:51.0750,1694294931.074764,0.01645066775381565,-0.0008090799674391747,0.0008117516408674419,-0.045089758932590485,0.5262604355812073,-0.8477325439453125,
0,2023-09-09 16:28:40.2140,02:53,10,1,2023-09-09 16:28:51.4160,1694294931.4164429,0.001773398951627314,-0.003681021276861429,-0.001702026231214404,0.1764373779296875,0.040374755859375,-0.985443115234375,123.38948059082031,-26.130081176757812,-39.122772216796875,2023-09-09 16:28:51.1750,1694294931.174591,-0.005959033966064453,0.00305383512750268,0.0006765961297787726,-0.04818730428814888,0.5127410888671875,-0.8529510498046875,
0,2023-09-09 16:28:40.2140,02:53,10,1,2023-09-09 16:28:51.5160,1694294931.51634,-0.00019574233738239855,-0.0036330842413008213,-0.0016881778137758374,0.1763458251953125,0.0413360595703125,-0.985107421875,123.54547119140625,-26.107040405273438,-39.142669677734375,2023-09-09 16:28:51.2740,1694294931.274417,-0.006499855779111385,0.003276608418673277,-0.00365839758887887,-0.043685946613550186,0.5166168212890625,-0.852264404296875,
0,2023-09-09 16:28:40.2140,02:53,10,1,2023-09-09 16:28:51.6160,1694294931.616457,0.0011281149927526712,-0.002124403603374958,-0.00024820660473778844,0.17694091796875,0.04095458984375,-0.9847564697265625,123.52784729003906,-26.23663330078125,-38.8250732421875,2023-09-09 16:28:51.3740,1694294931.374321,-0.003351532854139805,0.001989103388041258,-0.0010094511089846492,-0.04634099826216698,0.5119171738624573,-0.85186767578125,
0,2023-09-09 16:28:40.2140,02:53,10,1,2023-09-09 16:28:51.7160,1694294931.716228,-0.0014498248929157853,-0.006822752300649881,-0.0005166532355360687,0.1770477294921875,0.0408935546875,-0.9851531982421875,123.55361938476562,-26.014663696289062,-38.78977966308594,2023-09-09 16:28:51.4740,1694294931.4740648,-0.0023818095214664936,-0.004007669165730476,-0.00433657132089138,-0.044708285480737686,0.5218658447265625,-0.8507080078125,
0,2023-09-09 16:28:40.2140,02:53,10,1,2023-09-09 16:28:51.8280,1694294931.8281732,-0.002403769176453352,-0.003796069882810116,-0.0005928196478635073,0.1761474609375,0.040679931640625,-0.984771728515625,123.42327880859375,-25.924240112304688,-39.19990539550781,2023-09-09 16:28:51.5740,1694294931.573975,-0.025447914376854897,0.0036498503759503365,-0.0002999183489009738,-0.048690833151340485,0.508758544921875,-0.8527679443359375,
0,2023-09-09 16:28:40.2140,02:53,10,1,2023-09-09 16:28:51.9160,1694294931.916181,-0.002403769176453352,-0.003796069882810116,-0.0005928196478635073,0.1765594482421875,0.040557861328125,-0.9837188720703125,123.71220397949219,-26.325027465820312,-39.02238464355469,2023-09-09 16:28:51.6740,1694294931.673915,-0.004994570277631283,0.0015360992401838303,-0.0016498748445883393,-0.04295352101325989,0.5162048935890198,-0.8492125868797302,
0,2023-09-09 16:28:40.2140,02:53,10,1,2023-09-09 16:28:52.0170,1694294932.016983,0.0004444815858732909,-0.0022101574577391148,-0.0034357442054897547,0.176910400390625,0.0406646728515625,-0.9842987060546875,123.66911315917969,-25.986663818359375,-39.27455139160156,2023-09-09 16:28:51.7740,1694294931.773789,0.00977818388491869,0.0057839746586978436,0.002251023892313242,-0.04658512398600578,0.5203399658203125,-0.8523406386375427,
0,2023-09-09 16:28:40.2140,02:53,10,1,2023-09-09 16:28:52.1170,1694294932.116529,1.8908443962573074e-05,-0.004760134033858776,-0.003312173532322049,0.1763763427734375,0.040496826171875,-0.9853668212890625,123.50033569335938,-26.086624145507812,-39.144317626953125,2023-09-09 16:28:51.8740,1694294931.873594,-0.011434625834226608,-0.0015547648072242737,-0.002901560626924038,-0.04420475289225578,0.5222625732421875,-0.8515319228172302,
0,2023-09-09 16:28:40.2140,02:53,10,1,2023-09-09 16:28:52.2160,1694294932.2161431,-0.0013488910626620054,-0.0035894084721803665,-0.0006317017832770944,0.176971435546875,0.0408172607421875,-0.985870361328125,123.37623596191406,-26.059539794921875,-39.34223937988281,2023-09-09 16:28:51.9730,1694294931.9733748,-0.012475123628973961,-0.0003257161006331444,-0.0051435427740216255,-0.04711918532848358,0.5114898085594177,-0.8509215712547302,
0,2023-09-09 16:28:40.2140,02:53,10,1,2023-09-09 16:28:52.3160,1694294932.316461,0.0005102616851218045,-0.005584382452070713,-0.003022954100742936,0.177215576171875,0.039703369140625,-0.98651123046875,123.5709228515625,-26.043930053710938,-39.16130065917969,2023-09-09 16:28:52.0730,1694294932.073075,0.012225096113979816,0.0074447221122682095,-0.004923399072140455,-0.04617313668131828,0.5112152099609375,-0.853607177734375,
0,2023-09-09 16:28:40.2140,02:53,10,1,2023-09-09 16:28:52.4160,1694294932.416234,-0.00039015308720991015,-0.0048975530080497265,-0.004304733593016863,0.178009033203125,0.0402679443359375,-0.98675537109375,123.45375061035156,-25.924209594726562,-39.165374755859375,2023-09-09 16:28:52.1730,1694294932.1728559,0.023954056203365326,0.0026803268119692802,-0.000727389007806778,-0.04740911349654198,0.5166321396827698,-0.852569580078125,
0,2023-09-09 16:28:40.2140,02:53,10,1,2023-09-09 16:28:52.5160,1694294932.516479,-0.0019507654942572117,-0.003792874049395323,-0.004740160424262285,0.1762847900390625,0.04071044921875,-0.98431396484375,123.57731628417969,-26.12982177734375,-38.94895935058594,2023-09-09 16:28:52.2730,1694294932.27276,-0.003892554435878992,-0.007454466074705124,-0.0056060003116726875,-0.043746985495090485,0.5140380859375,-0.8525237441062927,
0,2023-09-09 16:28:40.2140,02:53,10,1,2023-09-09 16:28:52.6260,1694294932.625988,-0.0013651363551616669,-0.006148173473775387,-0.0023664848413318396,0.176513671875,0.0406951904296875,-0.9845733642578125,123.22805786132812,-25.969894409179688,-38.545654296875,2023-09-09 16:28:52.3730,1694294932.372658,-0.03246188163757324,0.0025600851513445377,-0.0035051661543548107,-0.05004887655377388,0.501007080078125,-0.8564452528953552,
0,2023-09-09 16:28:40.2140,02:53,10,1,2023-09-09 16:28:52.7160,1694294932.7164989,0.0005864280392415822,-0.005101817660033703,-0.003528422210365534,0.1769866943359375,0.0411224365234375,-0.9847869873046875,123.39747619628906,-26.149215698242188,-38.832305908203125,2023-09-09 16:28:52.4720,1694294932.472381,0.007711570709943771,-0.0021418584510684013,-0.0001894970191642642,-0.042907752096652985,0.5118865966796875,-0.8547820448875427,
0,2023-09-09 16:28:40.2140,02:53,10,1,2023-09-09 16:28:52.8170,1694294932.817251,-2.103897168126423e-05,0.0008764463127590716,-0.004542287439107895,0.176300048828125,0.04010009765625,-0.9840240478515625,123.43058776855469,-26.422775268554688,-38.67250061035156,2023-09-09 16:28:52.5720,1694294932.572391,0.04248732700943947,-0.009711228311061859,-0.001442614127881825,-0.046173132956027985,0.51739501953125,-0.8529204726219177,
0,2023-09-09 16:28:40.2140,02:53,10,1,2023-09-09 16:28:52.9160,1694294932.9164739,-0.0002407497668173164,-0.005393700208514929,-0.0025957829784601927,0.17694091796875,0.0406036376953125,-0.9844207763671875,123.41810607910156,-25.993011474609375,-38.750335693359375,2023-09-09 16:28:52.6720,1694294932.6722121,-0.0027624419890344143,-0.001682862639427185,-0.0007358113070949912,-0.04641728475689888,0.52093505859375,-0.8545531630516052,
0,2023-09-09 16:28:40.2140,02:53,10,1,2023-09-09 16:28:53.0160,1694294933.016345,-0.0012711267918348312,-0.004963599611073732,-0.0021899172570556402,0.17730712890625,0.0414581298828125,-0.98614501953125,123.49617004394531,-26.246322631835938,-38.81019592285156,2023-09-09 16:28:52.7720,1694294932.7721372,-0.005733863450586796,-0.008128244429826736,-0.011440187692642212,-0.049026522785425186,0.50921630859375,-0.8582915663719177,
0,2023-09-09 16:28:40.2140,02:53,10,1,2023-09-09 16:28:53.1160,1694294933.116266,0.0024546354543417692,-0.002959570847451687,-0.0005898901727050543,0.1764068603515625,0.0408477783203125,-0.985198974609375,123.60739135742188,-26.200210571289062,-38.70973205566406,2023-09-09 16:28:52.8720,1694294932.871907,-0.01079739909619093,-0.003541615791618824,-0.00915116723626852,-0.04707340896129608,0.5033264756202698,-0.8559874892234802,
0,2023-09-09 16:28:40.2140,02:53,10,1,2023-09-09 16:28:53.2170,1694294933.2165608,-0.002591255819424987,-0.0027680895291268826,-0.0025070998817682266,0.176727294921875,0.0409088134765625,-0.984771728515625,123.49818420410156,-26.273178100585938,-38.90132141113281,2023-09-09 16:28:52.9720,1694294932.9717588,0.020148999989032745,-0.0029561202973127365,-0.0011512644123286009,-0.046859774738550186,0.50933837890625,-0.8553008437156677,
0,2023-09-09 16:28:40.2140,02:53,10,1,2023-09-09 16:28:53.3260,1694294933.3261142,-0.0014037522487342358,-0.004811000544577837,-0.0008167914929799736,0.1768798828125,0.0405731201171875,-0.985076904296875,123.39346313476562,-26.306015014648438,-39.160552978515625,2023-09-09 16:28:53.0720,1694294933.071701,0.01826927252113819,-0.0061810752376914024,0.00012908357894048095,-0.04450992867350578,0.5129700303077698,-0.8542938232421875,
0,2023-09-09 16:28:40.2140,02:53,10,1,2023-09-09 16:28:53.4160,1694294933.41646,-0.00027616979787126184,-0.0029995182994753122,-0.0026996464002877474,0.1761932373046875,0.040771484375,-0.984649658203125,123.41433715820312,-26.338607788085938,-39.01066589355469,2023-09-09 16:28:53.1710,1694294933.17138,-0.01624009944498539,0.002056082244962454,-0.003446543123573065,-0.05140688642859459,0.5044556260108948,-0.854949951171875,
0,2023-09-09 16:28:40.2140,02:53,10,1,2023-09-09 16:28:53.5170,1694294933.51656,0.003712446428835392,-0.0038216360844671726,-0.0015102786710485816,0.176971435546875,0.03985595703125,-0.98529052734375,123.56797790527344,-26.412857055664062,-39.141998291015625,2023-09-09 16:28:53.2710,1694294933.271182,0.002706825500354171,0.009400813840329647,0.0006571884732693434,-0.049804724752902985,0.512603759765625,-0.854949951171875,
0,2023-09-09 16:28:40.2140,02:53,10,1,2023-09-09 16:28:53.6170,1694294933.6168718,-0.0003784351865760982,-0.005305549595504999,-0.003123355330899358,0.17681884765625,0.0403900146484375,-0.9860076904296875,123.77549743652344,-26.427383422851562,-38.58848571777344,2023-09-09 16:28:53.3710,1694294933.3709931,0.024793552234768867,-0.002724957652390003,7.911596912890673e-05,-0.048278871923685074,0.516082763671875,-0.8545836806297302,
0,2023-09-09 16:28:40.2140,02:53,10,1,2023-09-09 16:28:53.7160,1694294933.7163792,0.0002719087351579219,-0.005042695440351963,-0.0024378576781600714,0.1772613525390625,0.0409088134765625,-0.9863128662109375,123.43617248535156,-26.264358520507812,-39.02105712890625,2023-09-09 16:28:53.4710,1694294933.470998,0.03544739633798599,-0.0032269638031721115,0.00011393678141757846,-0.04872136190533638,0.5248565673828125,-0.8526611328125,
0,2023-09-09 16:28:40.2140,02:53,10,1,2023-09-09 16:28:53.8170,1694294933.816644,-0.0003182477375958115,-0.0034442662727087736,-0.0025869945529848337,0.17608642578125,0.041015625,-0.9857025146484375,123.57762145996094,-26.50238037109375,-39.00782775878906,2023-09-09 16:28:53.5710,1694294933.570722,0.004455590154975653,0.009024509228765965,0.00037336203968152404,-0.05468755587935448,0.5099182724952698,-0.859222412109375,
0,2023-09-09 16:28:40.2140,02:53,10,1,2023-09-09 16:28:53.9160,1694294933.916103,-0.003569967346265912,-0.0036362800747156143,-0.002675145398825407,0.17633056640625,0.0403289794921875,-0.9862213134765625,123.44297790527344,-26.328475952148438,-39.246246337890625,2023-09-09 16:28:53.6710,1694294933.6706429,-0.024178318679332733,0.013872794806957245,0.012433553114533424,-0.04425054416060448,0.4929656982421875,-0.858306884765625,
0,2023-09-09 16:28:40.2140,02:53,10,1,2023-09-09 16:28:54.0160,1694294934.0164099,-0.0023819312918931246,-0.003224289044737816,-0.003073021536692977,0.17633056640625,0.0403289794921875,-0.9862213134765625,123.70252990722656,-26.547271728515625,-38.79119873046875,2023-09-09 16:28:53.7700,1694294933.770409,0.07663850486278534,-0.007105058990418911,0.007096745073795319,-0.04600529372692108,0.4980469346046448,-0.8582610487937927,
0,2023-09-09 16:28:40.2140,02:53,10,1,2023-09-09 16:28:54.1160,1694294934.116303,-0.0015840481501072645,-0.005598230753093958,-0.0034674357157200575,0.17724609375,0.0406341552734375,-0.9870758056640625,123.47116088867188,-26.48651123046875,-38.75408935546875,2023-09-09 16:28:53.8700,1694294933.870263,0.18689364194869995,0.000472433865070343,0.025923961773514748,-0.04168705642223358,0.517425537109375,-0.8592070937156677,
0,2023-09-09 16:28:40.2140,02:53,10,1,2023-09-09 16:28:54.2160,1694294934.215963,-0.002482066163793206,-0.004490355961024761,-0.0013161342358216643,0.1768646240234375,0.0408477783203125,-0.9854736328125,123.55720520019531,-26.481903076171875,-38.87498474121094,2023-09-09 16:28:53.9700,1694294933.970086,0.09746609628200531,0.0953197181224823,0.0829458013176918,-0.05148319900035858,0.4974670708179474,-0.863677978515625,
0,2023-09-09 16:28:40.2140,02:53,10,1,2023-09-09 16:28:54.3160,1694294934.316354,-0.002573412610217929,-0.004543086513876915,3.1957933970261365e-06,0.1768798828125,0.04107666015625,-0.985687255859375,123.6019287109375,-26.449722290039062,-38.59934997558594,2023-09-09 16:28:54.0700,1694294934.0700421,0.87941575050354,-1.1889657974243164,-0.36915719509124756,-0.04765323922038078,0.5046234726905823,-0.8830260634422302,
0,2023-09-09 16:28:40.2140,02:53,10,1,2023-09-09 16:28:54.4160,1694294934.4161339,-0.0002873550693038851,-0.005241899751126766,-0.0018724685069173574,0.176055908203125,0.041748046875,-0.98626708984375,123.26522827148438,-26.294464111328125,-38.58882141113281,2023-09-09 16:28:54.1700,1694294934.169869,-0.07267754524946213,0.015841934829950333,0.08325786143541336,0.013900738209486008,0.4320221245288849,-0.8820952773094177,
0,2023-09-09 16:28:40.2140,02:53,10,1,2023-09-09 16:28:54.5260,1694294934.5257812,-0.000336090917699039,-0.004248008131980896,-0.002163019496947527,0.1767120361328125,0.0405426025390625,-0.9855804443359375,123.44100952148438,-26.22119140625,-38.553070068359375,2023-09-09 16:28:54.2700,1694294934.269772,0.16707313060760498,0.31178703904151917,0.017496488988399506,-0.1261749565601349,0.5022125542163849,-0.8494567275047302,
0,2023-09-09 16:28:40.2140,02:53,10,1,2023-09-09 16:28:54.6160,1694294934.616235,-0.001577123999595642,-0.00574816670268774,-0.0008823052630759776,0.1767120361328125,0.0405426025390625,-0.9855804443359375,123.44279479980469,-26.41204833984375,-38.743377685546875,2023-09-09 16:28:54.3690,1694294934.369326,0.6717832088470459,-0.9360519051551819,-0.25656387209892273,-0.11257939040660858,0.5339660942554474,-0.869171142578125,
0,2023-09-09 16:28:40.2140,02:53,10,1,2023-09-09 16:28:54.7270,1694294934.727171,-0.0013736584223806858,-0.005486111622303724,-0.0035278894938528538,0.1767578125,0.0408477783203125,-0.9865875244140625,123.38619995117188,-26.22845458984375,-38.57933044433594,2023-09-09 16:28:54.4690,1694294934.4693441,-0.015382429584860802,-0.2812901437282562,0.14929886162281036,-0.05799870193004608,0.3549347221851349,-0.87811279296875,
0,2023-09-09 16:28:40.2140,02:53,10,1,2023-09-09 16:28:54.8260,1694294934.8257442,-0.003433347214013338,-0.003861583536490798,-0.0013946974650025368,0.17657470703125,0.04034423828125,-0.984527587890625,123.47810363769531,-26.157241821289062,-38.73779296875,2023-09-09 16:28:54.5690,1694294934.569203,0.02210881933569908,-0.33078885078430176,0.07587694376707077,-0.1308288872241974,0.38226318359375,-0.9148253798484802,
0,2023-09-09 16:28:40.2140,02:53,10,1,2023-09-09 16:28:54.9160,1694294934.9161658,-0.0011520835105329752,-0.004589691758155823,-0.002088717184960842,0.17657470703125,0.04034423828125,-0.984527587890625,123.48379516601562,-26.248291015625,-38.985748291015625,2023-09-09 16:28:54.6690,1694294934.669009,-0.3764149844646454,-0.5193369388580322,0.0948493704199791,-0.07504276931285858,0.2769928276538849,-0.9059295058250427,
0,2023-09-09 16:28:40.2140,02:53,10,1,2023-09-09 16:28:55.0160,1694294935.016403,-0.0004996090428903699,-0.0051992894150316715,-0.0033425334841012955,0.176605224609375,0.04052734375,-0.98431396484375,123.61056518554688,-26.332351684570312,-38.55308532714844,2023-09-09 16:28:54.7690,1694294934.768784,0.06366458535194397,-0.7102303504943848,-0.01206599734723568,-0.2840424031019211,0.3347473442554474,-0.8687896132469177,
0,2023-09-09 16:28:40.2140,02:53,10,1,2023-09-09 16:28:55.1160,1694294935.116327,0.0026908579748123884,-0.0049825082533061504,-0.002834402257576585,0.177032470703125,0.04083251953125,-0.984893798828125,123.57356262207031,-26.165603637695312,-38.96726989746094,2023-09-09 16:28:54.8690,1694294934.868668,-0.43631085753440857,-0.8569851517677307,-0.14793434739112854,-0.3200836181640625,0.3996734619140625,-0.8479613661766052,
0,2023-09-09 16:28:40.2140,02:53,10,1,2023-09-09 16:28:55.2160,1694294935.216329,0.001526523963548243,-0.004579837899655104,-0.0037651772145181894,0.176910400390625,0.0402069091796875,-0.9848175048828125,123.57301330566406,-26.209625244140625,-38.8699951171875,2023-09-09 16:28:54.9690,1694294934.968512,-0.3106468915939331,-0.8336365222930908,-0.3091096878051758,-0.4117126762866974,0.3689728081226349,-0.7937011122703552,
0,2023-09-09 16:28:40.2140,02:53,10,1,2023-09-09 16:28:55.3160,1694294935.3163872,-0.0032112395856529474,-0.00592686515301466,-0.0020865867845714092,0.177215576171875,0.0402374267578125,-0.9852294921875,123.5303955078125,-26.162979125976562,-39.02101135253906,2023-09-09 16:28:55.0690,1694294935.068563,-0.37842848896980286,-0.8454646468162537,-0.6324856877326965,-0.3398742973804474,0.5727844536304474,-0.8128814697265625,
0,2023-09-09 16:28:40.2140,02:53,10,1,2023-09-09 16:28:55.4170,1694294935.417416,-0.001776328426785767,-0.002183259464800358,-0.003846403444185853,0.1763916015625,0.0403594970703125,-0.9856109619140625,123.46900939941406,-26.1495361328125,-38.75592041015625,2023-09-09 16:28:55.1680,1694294935.16825,-0.7447604537010193,-0.6809762716293335,-0.480861634016037,-0.3555145859718323,0.5963898003101349,-0.9617308974266052,
0,2023-09-09 16:28:40.2140,02:53,10,1,2023-09-09 16:28:55.5270,1694294935.526617,-0.0005145227187313139,-0.00256382510997355,-0.00290417717769742,0.1777801513671875,0.039031982421875,-0.98486328125,123.62806701660156,-26.427017211914062,-37.50682067871094,2023-09-09 16:28:55.2680,1694294935.268083,0.5815445184707642,-0.8830944895744324,-0.6215713024139404,-0.8311461210250854,0.5976561307907104,-0.5605316758155823,
0,2023-09-09 16:28:40.2140,02:53,10,1,2023-09-09 16:28:55.6250,1694294935.625413,-0.0046333675272762775,-0.003736681304872036,-0.0032501218374818563,0.186279296875,0.0344696044921875,-0.9724273681640625,123.50996398925781,-26.353912353515625,-38.56834411621094,2023-09-09 16:28:55.3680,1694294935.3678489,-0.0488661527633667,-0.9067515134811401,-0.5871924757957458,-0.6729431748390198,0.51251220703125,-0.6145781874656677,
0,2023-09-09 16:28:40.2140,02:53,10,1,2023-09-09 16:28:55.7250,1694294935.72524,-0.0001728391507640481,-3.99474156438373e-05,0.0017568873008713126,0.180267333984375,0.04180908203125,-0.9948577880859375,124.01750183105469,-27.000381469726562,-36.20085144042969,2023-09-09 16:28:55.4680,1694294935.467658,-0.3218277096748352,-1.1297311782836914,-0.4547567367553711,-0.7560272812843323,0.3911285698413849,-0.47994986176490784,
0,2023-09-09 16:28:40.2140,02:53,10,1,2023-09-09 16:28:55.8280,1694294935.827681,-0.0011113371001556516,-0.01392859872430563,-0.0011941614793613553,0.1762847900390625,0.0489959716796875,-0.978973388671875,123.49003601074219,-26.144943237304688,-38.801849365234375,2023-09-09 16:28:55.5680,1694294935.5676289,0.0757085308432579,-0.711833119392395,-0.5205501317977905,-0.7889862656593323,0.4517212212085724,-0.43104544281959534,
0,2023-09-09 16:28:40.2140,02:53,10,1,2023-09-09 16:28:55.9250,1694294935.925185,0.0011877698125317693,-0.0137253999710083,-0.006030728109180927,0.174652099609375,0.0362396240234375,-0.998992919921875,123.35467529296875,-25.968154907226562,-38.50518798828125,2023-09-09 16:28:55.6670,1694294935.667407,0.0750679075717926,-0.6243986487388611,-0.567054033279419,-0.9308165907859802,0.3274688720703125,-0.38099661469459534,
0,2023-09-09 16:28:40.2140,02:53,10,1,2023-09-09 16:28:56.0280,1694294936.0276508,-0.0015390408225357533,-0.007465106900781393,0.0012578109744936228,0.173492431640625,0.036590576171875,-0.986663818359375,123.47711181640625,-26.172592163085938,-38.95375061035156,2023-09-09 16:28:55.7670,1694294935.7674708,0.018509425222873688,-0.8597120642662048,-0.4258347153663635,-1.109466552734375,0.360687255859375,-0.2528075575828552,
0,2023-09-09 16:28:40.2140,02:53,10,1,2023-09-09 16:28:56.1280,1694294936.12774,-0.0010229201288893819,-0.0012125372886657715,-0.003079679561778903,0.1833038330078125,0.0397491455078125,-0.9843292236328125,123.54574584960938,-26.270050048828125,-38.73143005371094,2023-09-09 16:28:55.8670,1694294935.867127,-0.2695404589176178,-0.5679031610488892,-0.389936238527298,-0.998260498046875,0.2030944526195526,-0.12536616623401642,
0,2023-09-09 16:28:40.2140,02:53,10,1,2023-09-09 16:28:56.2280,1694294936.227779,-0.005056011490523815,-0.0015195996966212988,-0.002043177140876651,0.1752777099609375,0.0410003662109375,-0.9789886474609375,123.42327880859375,-26.397705078125,-38.53938293457031,2023-09-09 16:28:55.9670,1694294935.966872,0.1624399721622467,-0.2848362624645233,-0.2196555733680725,-0.9801483154296875,0.260955810546875,-0.22265616059303284,
0,2023-09-09 16:28:40.2140,02:53,10,1,2023-09-09 16:28:56.3270,1694294936.326758,-0.00015899071877356619,-0.0007161240209825337,-0.00038402783684432507,0.17376708984375,0.043975830078125,-0.9811248779296875,123.62898254394531,-26.304397583007812,-38.54096984863281,2023-09-09 16:28:56.0670,1694294936.066873,-0.358215868473053,-0.28922727704048157,-0.20044173300266266,-0.9639740586280823,0.0820465087890625,0.021743878722190857,
0,2023-09-09 16:28:40.2140,02:53,10,1,2023-09-09 16:28:56.4250,1694294936.425071,-4.1012681322172284e-05,-0.003884752979502082,-0.0010402307379990816,0.181396484375,0.0428466796875,-0.9872283935546875,123.55413818359375,-26.164505004882812,-38.2196044921875,2023-09-09 16:28:56.1670,1694294936.166556,-0.28644880652427673,-0.04650506377220154,-0.25478029251098633,-0.8320465087890625,0.3502655178308487,-0.22053523361682892,
0,2023-09-09 16:28:40.2140,02:53,10,1,2023-09-09 16:28:56.5280,1694294936.527698,0.0001984054979402572,-0.0068025123327970505,-0.006416353862732649,0.176666259765625,0.041961669921875,-0.9880523681640625,123.70890808105469,-26.412582397460938,-38.78810119628906,2023-09-09 16:28:56.2660,1694294936.266449,-0.3163561224937439,0.08862852305173874,-0.19688411056995392,-0.8184967041015625,0.2833404690027237,-0.12176507711410522,
0,2023-09-09 16:28:40.2140,02:53,10,1,2023-09-09 16:28:56.6280,1694294936.627688,0.00016192019393201917,-0.005269863177090883,-4.474110755836591e-05,0.1763458251953125,0.0380401611328125,-0.990509033203125,123.53115844726562,-25.995925903320312,-38.90931701660156,2023-09-09 16:28:56.3660,1694294936.366301,-0.22996224462985992,-0.037456974387168884,-0.37311503291130066,-0.8888701796531677,0.1553192138671875,-0.12808220088481903,
0,2023-09-09 16:28:40.2140,02:53,10,1,2023-09-09 16:28:56.7280,1694294936.727654,-0.0018421085551381111,-0.004547081422060728,-0.004599545616656542,0.1786346435546875,0.0393218994140625,-0.990692138671875,123.62306213378906,-25.893157958984375,-38.79010009765625,2023-09-09 16:28:56.4660,1694294936.466208,-0.11683201789855957,-0.13459350168704987,-0.3873501121997833,-0.8528136610984802,0.1916503682732582,-0.14854422211647034,
0,2023-09-09 16:28:40.2140,02:53,10,1,2023-09-09 16:28:56.8280,1694294936.8276072,-0.005694104824215174,-0.0033073797821998596,-0.004036819562315941,0.1786651611328125,0.0402984619140625,-0.9888763427734375,123.44996643066406,-26.173065185546875,-38.96513366699219,2023-09-09 16:28:56.5660,1694294936.5659928,-0.0906108096241951,-0.07608252763748169,-0.31624943017959595,-0.9071961641311646,0.243560791015625,-0.315948486328125,
0,2023-09-09 16:28:40.2140,02:53,10,1,2023-09-09 16:28:56.9280,1694294936.927919,-0.002510828198865056,-0.0014612764352932572,-0.001740642124786973,0.17706298828125,0.0413360595703125,-0.982940673828125,123.62954711914062,-26.24822998046875,-38.72370910644531,2023-09-09 16:28:56.6660,1694294936.665843,0.09595141559839249,-0.17637677490711212,-0.5057096481323242,-0.877960205078125,0.2817077487707138,-0.10876452922821045,
0,2023-09-09 16:28:40.2140,02:53,10,1,2023-09-09 16:28:57.0280,1694294937.0276442,-0.004521781112998724,-0.004802478477358818,0.00039601203752681613,0.1778411865234375,0.041534423828125,-0.981201171875,123.62388610839844,-26.226882934570312,-38.43455505371094,2023-09-09 16:28:56.7660,1694294936.765635,0.540250301361084,0.10154698044061661,-0.12880313396453857,-1.016433835029602,0.2507019117474556,-0.13571159541606903,
0,2023-09-09 16:28:40.2140,02:53,10,1,2023-09-09 16:28:57.1280,1694294937.127514,-0.0024527714122086763,-0.0033417344093322754,-0.0057473680935800076,0.1754150390625,0.040679931640625,-0.984283447265625,123.64433288574219,-26.198593139648438,-38.75108337402344,2023-09-09 16:28:56.8660,1694294936.865728,0.24970856308937073,0.13399720191955566,-0.2396055907011032,-1.0511626601219177,0.051238998770713806,-0.04866017401218414,
0,2023-09-09 16:28:40.2140,02:53,10,1,2023-09-09 16:28:57.2280,1694294937.2275,-0.0001882854849100113,-0.0025100293569266796,-0.0002639192680362612,0.1778106689453125,0.0410003662109375,-0.9871368408203125,123.40141296386719,-25.99139404296875,-39.37652587890625,2023-09-09 16:28:56.9650,1694294936.965324,-0.12825113534927368,-0.09104230254888535,-0.07408805191516876,-0.9566956758499146,-0.008102414314635098,-0.06860345602035522,
0,2023-09-09 16:28:40.2140,02:53,10,1,2023-09-09 16:28:57.3280,1694294937.327735,0.0006588660762645304,-0.008360461331903934,-0.0035119105596095324,0.1778106689453125,0.0410003662109375,-0.9871368408203125,123.15798950195312,-25.8125,-39.537200927734375,2023-09-09 16:28:57.0650,1694294937.0653229,-0.03994090482592583,-0.11537627130746841,0.005497151054441929,-0.8517608046531677,0.05323791934642941,-0.18423455953598022,
0,2023-09-09 16:28:40.2140,02:53,10,1,2023-09-09 16:28:57.4280,1694294937.4276218,-0.003590473672375083,-0.003406981937587261,-0.0023941819090396166,0.1781005859375,0.03973388671875,-0.9878082275390625,123.36306762695312,-26.063751220703125,-39.54774475097656,2023-09-09 16:28:57.1650,1694294937.165014,-0.047980256378650665,0.18480604887008667,0.05155069753527641,-1.1066590547561646,-0.00840757298283279,-0.15101617574691772,
0,2023-09-09 16:28:40.2140,02:53,10,1,2023-09-09 16:28:57.5280,1694294937.52752,-0.0013853764394298196,-0.004801945760846138,0.0001573928166180849,0.176055908203125,0.0386810302734375,-0.9864654541015625,123.25848388671875,-25.906814575195312,-39.52540588378906,2023-09-09 16:28:57.2650,1694294937.264929,0.17770080268383026,-0.03144954890012741,0.10345783829689026,-0.9699403047561646,0.07179261278361082,-0.18560786545276642,
0,2023-09-09 16:28:40.2140,02:53,10,1,2023-09-09 16:28:57.6270,1694294937.627255,-0.0014423680258914828,-0.003796069882810116,-0.001960885478183627,0.175567626953125,0.0403594970703125,-0.983978271484375,123.34661865234375,-26.103286743164062,-39.13990783691406,2023-09-09 16:28:57.3650,1694294937.3646321,0.07047388702630997,0.016345005482435226,0.0271613672375679,-0.9947052597999573,0.08786010835319757,-0.13847342133522034,
0,2023-09-09 16:28:40.2140,02:53,10,1,2023-09-09 16:28:57.7280,1694294937.7278,-0.0016700683627277613,-0.003565173828974366,-0.005122856702655554,0.1784820556640625,0.042572021484375,-0.9841766357421875,123.43194580078125,-26.094131469726562,-39.39125061035156,2023-09-09 16:28:57.4650,1694294937.464544,0.07002328336238861,-0.0816316306591034,-0.07438815385103226,-0.918182373046875,0.10249327681958675,-0.12969964742660522,
0,2023-09-09 16:28:40.2140,02:53,10,1,2023-09-09 16:28:57.8270,1694294937.826847,0.0004953479510731995,-0.003543602069839835,-0.0010317085543647408,0.1770172119140625,0.040679931640625,-0.9840087890625,123.47071838378906,-26.08917236328125,-38.94560241699219,2023-09-09 16:28:57.5640,1694294937.564355,0.014537719078361988,0.030876677483320236,0.002805394120514393,-1.0182189345359802,0.04721070174127817,-0.16418452560901642,
0,2023-09-09 16:28:40.2140,02:53,10,1,2023-09-09 16:28:57.9170,1694294937.917105,-0.0005619269795715809,-0.004579039290547371,-0.003441869281232357,0.1752471923828125,0.0398712158203125,-0.9849395751953125,123.40095520019531,-26.036651611328125,-39.08708190917969,2023-09-09 16:28:57.6640,1694294937.664278,0.07762860506772995,-0.11588040739297867,0.08093491941690445,-0.91632080078125,0.04501341562718153,-0.13685603439807892,
0,2023-09-09 16:28:40.2140,02:53,10,1,2023-09-09 16:28:58.0280,1694294938.027669,0.002681004349142313,-0.006136988289654255,-0.005020325072109699,0.1785736083984375,0.041595458984375,-0.9854888916015625,123.59233093261719,-26.355682373046875,-39.58726501464844,2023-09-09 16:28:57.7640,1694294937.764101,0.05053253844380379,0.14389923214912415,0.02969449944794178,-1.0905913710594177,0.03636169619858265,-0.16590875387191772,
0,2023-09-09 16:28:40.2140,02:53,10,1,2023-09-09 16:28:58.1290,1694294938.12859,-0.0036224317736923695,-0.0027166905347257853,-0.004309260752052069,0.1788787841796875,0.0402984619140625,-0.9860076904296875,123.42063903808594,-26.096969604492188,-39.385833740234375,2023-09-09 16:28:57.8640,1694294937.863934,0.06699679791927338,0.005480507388710976,-0.013287754729390144,-0.9502565264701843,0.09219360537827015,-0.16891473531723022,
0,2023-09-09 16:28:40.2140,02:53,10,1,2023-09-09 16:28:58.2280,1694294938.2275782,3.834952076431364e-05,-0.0038783615455031395,0.0004892227007076144,0.176025390625,0.038360595703125,-0.985595703125,123.50035095214844,-25.987686157226562,-38.88526916503906,2023-09-09 16:28:57.9640,1694294937.963688,0.08154318481683731,-0.08162204176187515,-0.025833074003458023,-1.0026397705078125,0.11889650300145149,-0.21176141500473022,
0,2023-09-09 16:28:40.2140,02:53,10,1,2023-09-09 16:28:58.3260,1694294938.325813,0.0004551342281047255,0.0002793656021822244,-0.0010996191995218396,0.1750946044921875,0.03887939453125,-0.9832763671875,123.51597595214844,-26.374649047851562,-38.52384948730469,2023-09-09 16:28:58.0640,1694294938.063586,0.03254508227109909,-0.01813587173819542,0.00358483474701643,-0.9719849228858948,0.0563812218606472,-0.16766348481178284,
0,2023-09-09 16:28:40.2140,02:53,10,1,2023-09-09 16:28:58.4280,1694294938.427803,-0.0006801713607273996,-0.004811799619346857,-0.003858654061332345,0.1779632568359375,0.0419464111328125,-0.9834442138671875,123.58543395996094,-26.26593017578125,-39.14448547363281,2023-09-09 16:28:58.1630,1694294938.1634002,0.0648546814918518,-0.020393434911966324,0.01984110288321972,-1.0270538330078125,0.036163317039608955,-0.14979547262191772,
0,2023-09-09 16:28:40.2140,02:53,10,1,2023-09-09 16:28:58.5280,1694294938.5275888,-0.00026019083452410996,-0.004870122764259577,-0.0033744913525879383,0.1752777099609375,0.0426788330078125,-0.9813232421875,123.46220397949219,-26.160324096679688,-38.986968994140625,2023-09-09 16:28:58.2630,1694294938.2632341,-0.0038310354575514793,0.050058893859386444,-0.0016806343337520957,-0.9810333847999573,-0.026809707283973694,-0.14408870041370392,
0,2023-09-09 16:28:40.2140,02:53,10,1,2023-09-09 16:28:58.6280,1694294938.627609,0.0007584682898595929,-0.004150802735239267,-0.00242107966914773,0.1768341064453125,0.0408782958984375,-0.9849700927734375,123.54682922363281,-26.101470947265625,-39.027587890625,2023-09-09 16:28:58.3630,1694294938.363231,0.06358622014522552,-0.004368394613265991,-0.040288813412189484,-0.973236083984375,-0.06193544156849384,-0.13642878830432892,
0,2023-09-09 16:28:40.2140,02:53,10,1,2023-09-09 16:28:58.7280,1694294938.727717,0.00020719393796753138,-0.006107693538069725,-0.0023467775899916887,0.177703857421875,0.0400848388671875,-0.9846038818359375,123.16004943847656,-26.057601928710938,-38.744384765625,2023-09-09 16:28:58.4630,1694294938.462809,0.06071320176124573,-0.008252881467342377,-0.01523672230541706,-0.979705810546875,0.03562924638390541,-0.16067498922348022,
0,2023-09-09 16:28:40.2140,02:53,10,1,2023-09-09 16:28:58.8280,1694294938.827652,-0.001781921018846333,-0.005516471806913614,-0.0027595674619078636,0.175689697265625,0.039031982421875,-0.98663330078125,123.36961364746094,-26.232742309570312,-38.68165588378906,2023-09-09 16:28:58.5630,1694294938.5627542,0.20488403737545013,-0.018970374017953873,-0.0130913145840168,-1.0262297987937927,0.026199329644441605,-0.15443412959575653,
0,2023-09-09 16:28:40.2140,02:53,10,1,2023-09-09 16:28:58.9270,1694294938.927499,-0.001139566651545465,-0.005155880004167557,-0.0010756507981568575,0.1757659912109375,0.0386505126953125,-0.9843597412109375,123.25874328613281,-25.985260009765625,-38.79737854003906,2023-09-09 16:28:58.6630,1694294938.66261,0.05306520313024521,-0.008704153820872307,-0.0070553929544985294,-0.9616088271141052,-0.019027728587388992,-0.18077076971530914,
0,2023-09-09 16:28:40.2140,02:53,10,1,2023-09-09 16:28:59.0270,1694294939.027498,0.0001608549355296418,-0.0020093549974262714,0.0008080030675046146,0.1771392822265625,0.04071044921875,-0.9850616455078125,123.32835388183594,-26.092742919921875,-38.84068298339844,2023-09-09 16:28:58.7620,1694294938.7624989,-0.03357894718647003,-0.0013020308688282967,-0.008504385128617287,-0.9665529131889343,-0.060424814000725746,-0.14482110738754272,
0,2023-09-09 16:28:40.2140,02:53,10,1,2023-09-09 16:28:59.1280,1694294939.127594,-0.0023012375459074974,-0.0001270327775273472,-0.005257612559944391,0.17791748046875,0.0410003662109375,-0.9841156005859375,123.4705810546875,-26.080062866210938,-39.02447509765625,2023-09-09 16:28:58.8620,1694294938.862251,-0.05387156456708908,-0.009018807671964169,-0.013641023077070713,-0.9658204913139343,-0.0592346265912056,-0.14897146821022034,
0,2023-09-09 16:28:40.2140,02:53,10,1,2023-09-09 16:28:59.2270,1694294939.227484,-0.00027084347675554454,-0.004867991898208857,-0.0032621060963720083,0.1761322021484375,0.0419464111328125,-0.9851531982421875,123.46446228027344,-26.208099365234375,-39.014190673828125,2023-09-09 16:28:58.9620,1694294938.962096,-0.09922859072685242,-0.00043823476880788803,0.01781500317156315,-0.986831784248352,-0.0689392164349556,-0.15289297699928284,
0,2023-09-09 16:28:40.2140,02:53,10,1,2023-09-09 16:28:59.3260,1694294939.326457,-0.002704173792153597,-0.00415319949388504,-0.0035569178871810436,0.176971435546875,0.0402069091796875,-0.9849700927734375,123.48924255371094,-26.203948974609375,-38.79261779785156,2023-09-09 16:28:59.0620,1694294939.062067,-0.06329242885112762,0.0017402307130396366,0.009454009123146534,-0.9571075439453125,-0.07861328311264515,-0.15547169744968414,
0,2023-09-09 16:28:40.2140,02:53,10,1,2023-09-09 16:28:59.4270,1694294939.4274921,-0.0035569178871810436,-0.00493244081735611,0.0011496866354718804,0.1776885986328125,0.0403594970703125,-0.9863128662109375,123.60638427734375,-26.4681396484375,-38.800384521484375,2023-09-09 16:28:59.1620,1694294939.161779,-0.07328341156244278,0.005536832846701145,0.016376430168747902,-0.929427981376648,-0.0851440317928791,-0.1664275825023651,
0,2023-09-09 16:28:40.2140,02:53,10,1,2023-09-09 16:28:59.5280,1694294939.5277119,-0.0012884372845292091,-0.004261057823896408,-0.0011896340874955058,0.1768798828125,0.040863037109375,-0.9870452880859375,123.56370544433594,-26.213150024414062,-39.05242919921875,2023-09-09 16:28:59.2620,1694294939.261664,-0.13897007703781128,0.06127559393644333,0.014113042503595352,-0.9903870820999146,-0.1027984507381916,-0.13128657639026642,
0,2023-09-09 16:28:40.2140,02:53,10,1,2023-09-09 16:28:59.6280,1694294939.627662,-0.0010242518037557602,-0.0034559841733425856,-0.0031795480754226446,0.1758880615234375,0.0404205322265625,-0.98626708984375,123.56370544433594,-26.213150024414062,-39.05242919921875,2023-09-09 16:28:59.3620,1694294939.361566,-0.08634921908378601,0.042907506227493286,0.011038823053240776,-0.9512328505516052,0.021270759403705597,-0.17201228439807892,
0,2023-09-09 16:28:40.2140,02:53,10,1,2023-09-09 16:28:59.7270,1694294939.727439,0.0004655205411836505,-0.004255198873579502,-0.0006578007596544921,0.176483154296875,0.039947509765625,-0.9833526611328125,123.52268981933594,-26.461380004882812,-38.65008544921875,2023-09-09 16:28:59.4620,1694294939.461513,-0.039971597492694855,0.023577485233545303,0.002777697052806616,-1.0440062284469604,0.007339486852288246,-0.14749139547348022,
0,2023-09-09 16:28:40.2140,02:53,10,1,2023-09-09 16:28:59.8280,1694294939.827738,0.001344630029052496,-0.0019321233266964555,-0.0021465078461915255,0.1771087646484375,0.0411376953125,-0.9846343994140625,123.49891662597656,-26.304855346679688,-38.97979736328125,2023-09-09 16:28:59.5610,1694294939.561152,-0.0416676290333271,-0.008994040079414845,-0.003990926314145327,-0.965408444404602,-0.007308971136808395,-0.16210931539535522,
0,2023-09-09 16:28:40.2140,02:53,10,1,2023-09-09 16:28:59.9280,1694294939.927578,-0.0005874933558516204,-0.004485296085476875,-0.003522563260048628,0.1761932373046875,0.040252685546875,-0.985931396484375,123.54747009277344,-26.311294555664062,-39.19618225097656,2023-09-09 16:28:59.6610,1694294939.660945,0.02430945634841919,-0.03153250366449356,0.007315823808312416,-1.0071563124656677,0.0798034630715847,-0.17842091619968414,
0,2023-09-09 16:28:40.2140,02:53,10,1,2023-09-09 16:29:00.0280,1694294940.027509,0.0014562164433300495,-0.0054392400197684765,-0.002159290947020054,0.1770477294921875,0.0406951904296875,-0.9867095947265625,123.59774780273438,-26.133010864257812,-39.24461364746094,2023-09-09 16:28:59.7610,1694294939.760817,-0.12806330621242523,0.0006006639450788498,-0.019251205027103424,-0.961868166923523,0.029083240777254105,-0.15673820674419403,
0,2023-09-09 16:28:40.2140,02:53,10,1,2023-09-09 16:29:00.1290,1694294940.128854,0.0005435511702671647,-0.003469033632427454,-0.003147856332361698,0.177886962890625,0.04034423828125,-0.9866485595703125,123.50700378417969,-26.3154296875,-38.98576354980469,2023-09-09 16:28:59.8610,1694294939.860668,-0.07420893013477325,0.008127423003315926,-0.014086371287703514,-0.963470458984375,0.08134461008012295,-0.15383903682231903,
0,2023-09-09 16:28:40.2140,02:53,10,1,2023-09-09 16:29:00.2250,1694294940.224915,-0.0018165421206504107,-0.0009307747823186219,-0.004412857815623283,0.176544189453125,0.0410003662109375,-0.9860382080078125,123.462158203125,-26.291534423828125,-39.24815368652344,2023-09-09 16:28:59.9600,1694294939.960495,-0.08344237506389618,0.026951443403959274,-0.023174673318862915,-0.9929808378219604,0.07800293527543545,-0.15542593598365784,
0,2023-09-09 16:28:40.2140,02:53,10,1,2023-09-09 16:29:00.3280,1694294940.327662,-0.0006388923502527177,-0.0021880532149225473,-0.0013938985066488385,0.1762847900390625,0.040313720703125,-0.98553466796875,123.456298828125,-26.314361572265625,-38.89283752441406,2023-09-09 16:29:00.0610,1694294940.060529,-0.03064240887761116,0.01110643520951271,0.022968919947743416,-1.0173950791358948,0.10974118672311306,-0.15454094111919403,
0,2023-09-09 16:28:40.2140,02:53,10,1,2023-09-09 16:29:00.4270,1694294940.4274821,-0.0018341189716011286,-0.002880475018173456,-0.001960352761670947,0.176422119140625,0.0411529541015625,-0.9856109619140625,123.267578125,-25.998779296875,-38.93568420410156,2023-09-09 16:29:00.1600,1694294940.160118,0.04430500417947769,-0.025164620950818062,0.041827064007520676,-0.9496461153030396,0.1044921875,-0.1982574462890625,
0,2023-09-09 16:28:40.2140,02:53,10,1,2023-09-09 16:29:00.5280,1694294940.527564,-0.0035175031516700983,-0.003070092061534524,-0.004471447318792343,0.1767120361328125,0.0414581298828125,-0.985382080078125,123.36865234375,-26.045913696289062,-38.79530334472656,2023-09-09 16:29:00.2600,1694294940.2600598,0.04673174023628235,-0.005041375756263733,0.024732597172260284,-1.0187379121780396,0.07727049104869366,-0.16894525289535522,
0,2023-09-09 16:28:40.2140,02:53,10,1,2023-09-09 16:29:00.6280,1694294940.628164,-0.0013781858142465353,-0.004349741153419018,-0.0019971043802797794,0.1767120361328125,0.040496826171875,-0.985260009765625,123.35124206542969,-25.972152709960938,-38.874786376953125,2023-09-09 16:29:00.3600,1694294940.3599548,-0.006252247840166092,0.009460868313908577,0.008306952193379402,-0.998504638671875,0.0656890980899334,-0.15141288936138153,
0,2023-09-09 16:28:40.2140,02:53,10,1,2023-09-09 16:29:00.7270,1694294940.727421,-0.0006554039428010583,-0.004945223685353994,4.873584839515388e-05,0.1773223876953125,0.041015625,-0.9857940673828125,123.51142883300781,-26.038848876953125,-38.84648132324219,2023-09-09 16:29:00.4600,1694294940.4597402,0.0644042119383812,-0.00986968632787466,-0.0097425552085042,-0.968505859375,0.0961303785443306,-0.1810607612133026,
0,2023-09-09 16:28:40.2140,02:53,10,1,2023-09-09 16:29:00.8280,1694294940.827866,-0.002757703186944127,-0.005534048657864332,-0.0027332021854817867,0.1777496337890625,0.03973388671875,-0.9861602783203125,123.47305297851562,-26.212905883789062,-38.818267822265625,2023-09-09 16:29:00.5600,1694294940.559558,-0.012822799384593964,0.017217325046658516,0.030622245743870735,-1.0205993056297302,-0.02082822658121586,-0.14709465205669403,
0,2023-09-09 16:28:40.2140,02:53,10,1,2023-09-09 16:29:00.9280,1694294940.928307,-0.003213636577129364,-0.001776328426785767,-0.002049036091193557,0.1761016845703125,0.04034423828125,-0.9861907958984375,123.45903015136719,-26.285934448242188,-38.601043701171875,2023-09-09 16:29:00.6590,1694294940.659381,-0.015520915389060974,0.017421722412109375,0.007236794102936983,-1.0171661376953125,0.018295301124453545,-0.16235347092151642,
0,2023-09-09 16:28:40.2140,02:53,10,1,2023-09-09 16:29:01.0270,1694294941.027478,0.0004601942200679332,-0.0016285229939967394,-0.0026991136837750673,0.1761932373046875,0.04071044921875,-0.98419189453125,123.44406127929688,-26.254287719726562,-38.65861511230469,2023-09-09 16:29:00.7590,1694294940.7593641,-0.008317062631249428,0.014553231187164783,-0.00654692854732275,-0.94989013671875,-0.0021057333797216415,-0.17373651266098022,
0,2023-09-09 16:28:40.2140,02:53,10,1,2023-09-09 16:29:01.1280,1694294941.127557,0.0005416869535110891,-0.004278101958334446,-0.00267780851572752,0.1773834228515625,0.040740966796875,-0.9841766357421875,123.59471130371094,-26.371414184570312,-38.617431640625,2023-09-09 16:29:00.8590,1694294940.858861,-0.034933093935251236,0.025356877595186234,0.059506721794605255,-1.0225830078125,-0.035064682364463806,-0.15216058492660522,
0,2023-09-09 16:28:40.2140,02:53,10,1,2023-09-09 16:29:01.2270,1694294941.226695,-0.001731320982798934,-0.002898318227380514,0.0003432814555708319,0.17584228515625,0.0411529541015625,-0.9837646484375,123.79727172851562,-26.208724975585938,-39.034332275390625,2023-09-09 16:29:00.9590,1694294940.9590259,-0.021328136324882507,0.058247048407793045,0.07480275630950928,-1.014312744140625,0.008544933050870895,-0.14317314326763153,
0,2023-09-09 16:28:40.2140,02:53,10,1,2023-09-09 16:29:01.3290,1694294941.3285232,0.0006916229031048715,-0.004351072479039431,-0.0019659455865621567,0.1768646240234375,0.0411529541015625,-0.983184814453125,123.68315124511719,-26.408676147460938,-38.616546630859375,2023-09-09 16:29:01.0590,1694294941.0589418,0.00570301478728652,0.006934460252523422,0.03062514029443264,-0.9730988144874573,-0.03990171663463116,-0.18110646307468414,
0,2023-09-09 16:28:40.2140,02:53,10,1,2023-09-09 16:29:01.4290,1694294941.4287171,-0.00034594463068060577,-0.0036493295338004827,-0.004547613672912121,0.17779541015625,0.0412445068359375,-0.9851531982421875,123.69020080566406,-26.350982666015625,-38.63307189941406,2023-09-09 16:29:01.1590,1694294941.158572,-0.051875390112400055,0.017506010830402374,0.03606334701180458,-0.9645842909812927,-0.0683441236615181,-0.13964833319187164,
0,2023-09-09 16:28:40.2140,02:53,10,1,2023-09-09 16:29:01.5280,1694294941.527588,-0.00270683690905571,-0.005215534474700689,-3.728425508597866e-05,0.17822265625,0.0400390625,-0.9859466552734375,123.41914367675781,-26.316253662109375,-38.72599792480469,2023-09-09 16:29:01.2590,1694294941.258537,-0.06938254833221436,-0.002509108744561672,-0.004062465857714415,-0.9870759844779968,-0.010955803096294403,-0.1631011813879013,
0,2023-09-09 16:28:40.2140,02:53,10,1,2023-09-09 16:29:01.6290,1694294941.6285172,-0.0020447750575840473,-0.002865028567612171,-0.001657551503740251,0.1756591796875,0.039703369140625,-0.987213134765625,123.36906433105469,-26.237457275390625,-39.253326416015625,2023-09-09 16:29:01.3580,1694294941.358243,-0.02417265810072422,-0.0182554479688406,-0.033814936876297,-0.9776002168655396,0.031890854239463806,-0.15827937424182892,
0,2023-09-09 16:28:40.2140,02:53,10,1,2023-09-09 16:29:01.7280,1694294941.727655,0.0002402171230642125,-0.0005065332516096532,-0.0020897823851555586,0.17645263671875,0.040618896484375,-0.9856719970703125,123.60653686523438,-26.421279907226562,-38.81895446777344,2023-09-09 16:29:01.4580,1694294941.4579558,-0.02906668372452259,-0.05216427892446518,-0.02153606340289116,-0.99163818359375,0.02725217305123806,-0.16606135666370392,
0,2023-09-09 16:28:40.2140,02:53,10,1,2023-09-09 16:29:01.8280,1694294941.828464,-0.0008010788587853312,-0.0035356127191334963,-0.003061037277802825,0.1782989501953125,0.0408477783203125,-0.98516845703125,123.68170166015625,-26.322036743164062,-39.108856201171875,2023-09-09 16:29:01.5580,1694294941.557928,-0.03927937522530556,-0.016503755003213882,-0.036432720720767975,-0.9658966660499573,0.0497741661965847,-0.17356865108013153,
0,2023-09-09 16:28:40.2140,02:53,10,1,2023-09-09 16:29:01.9270,1694294941.927089,0.0007760451408103108,-0.004501274786889553,-0.003236539661884308,0.17669677734375,0.0403289794921875,-0.9855499267578125,123.56111145019531,-26.261032104492188,-39.016510009765625,2023-09-09 16:29:01.6580,1694294941.657773,-0.0030910761561244726,0.02549256570637226,0.014198396354913712,-0.996139407157898,0.033859264105558395,-0.15089407563209534,
0,2023-09-09 16:28:40.2140,02:53,10,1,2023-09-09 16:29:02.0290,1694294942.028531,-0.0004362257895991206,-0.0022471752017736435,-0.002560895634815097,0.17559814453125,0.041229248046875,-0.9851531982421875,123.41490173339844,-26.304824829101562,-38.948760986328125,2023-09-09 16:29:01.7580,1694294941.7575579,-0.04932328313589096,0.0076397983357310295,-0.012734017334878445,-1.00048828125,0.009597789496183395,-0.14431756734848022,
0,2023-09-09 16:28:40.2140,02:53,10,1,2023-09-09 16:29:02.1280,1694294942.128351,-0.0012807141756638885,-0.005137770436704159,-0.002469815546646714,0.1785430908203125,0.0416717529296875,-0.9859161376953125,123.49623107910156,-26.059600830078125,-39.055511474609375,2023-09-09 16:29:01.8580,1694294941.857562,0.0029264031909406185,-0.005792786367237568,-0.05072125047445297,-0.9866791367530823,0.0705718956887722,-0.17199702560901642,
0,2023-09-09 16:28:40.2140,02:53,10,1,2023-09-09 16:29:02.2280,1694294942.228135,-0.0037020600866526365,-0.005947371479123831,-0.003921504598110914,0.1779327392578125,0.0407562255859375,-0.9863433837890625,123.51689147949219,-26.267135620117188,-38.63746643066406,2023-09-09 16:29:01.9570,1694294941.957388,0.01232223492115736,0.04854009300470352,0.04413645714521408,-1.00372314453125,0.0727691687643528,-0.1365966498851776,
0,2023-09-09 16:28:40.2140,02:53,10,1,2023-09-09 16:29:02.3280,1694294942.328395,-0.0013398362789303064,-0.0020066918805241585,0.00011478224041638896,0.17572021484375,0.0396270751953125,-0.9862518310546875,123.58799743652344,-26.171539306640625,-38.49864196777344,2023-09-09 16:29:02.0570,1694294942.057242,0.020054390653967857,0.010571539402008057,0.039360105991363525,-1.0032044649124146,0.1324920542538166,-0.16882316768169403,
0,2023-09-09 16:28:40.2140,02:53,10,1,2023-09-09 16:29:02.4280,1694294942.427566,-0.0029316076543182135,-0.007801730185747147,-0.0013395700370892882,0.176605224609375,0.0379791259765625,-0.9851226806640625,123.565673828125,-26.293563842773438,-38.491119384765625,2023-09-09 16:29:02.1570,1694294942.156941,0.01671179011464119,-0.020090632140636444,-0.004852991551160812,-0.9886167645454407,0.1114654541015625,-0.17701715230941772,
0,2023-09-09 16:28:40.2140,02:53,10,1,2023-09-09 16:29:02.5290,1694294942.528648,-0.0007337008719332516,-0.0037230991292744875,-0.0006844323943369091,0.1778411865234375,0.040924072265625,-0.983734130859375,123.64437866210938,-26.2823486328125,-38.71063232421875,2023-09-09 16:29:02.2570,1694294942.256839,0.09720224142074585,-0.0021816734224557877,0.03942439332604408,-0.9757233262062073,0.0337066613137722,-0.18368521332740784,
0,2023-09-09 16:28:40.2140,02:53,10,1,2023-09-09 16:29:02.6280,1694294942.62759,-0.0029470541048794985,-0.0041191112250089645,-0.0005965480813756585,0.1766357421875,0.0411529541015625,-0.9838104248046875,123.55223083496094,-26.269927978515625,-38.87921142578125,2023-09-09 16:29:02.3570,1694294942.3566241,0.0945485308766365,-0.005979075096547604,0.021231338381767273,-0.9857786893844604,0.0684814378619194,-0.2306823432445526,
0,2023-09-09 16:28:40.2140,02:53,10,1,2023-09-09 16:29:02.7280,1694294942.728049,3.994741746282671e-06,-0.0029606360476464033,-0.0008396946941502392,0.176361083984375,0.040618896484375,-0.9833526611328125,123.52445983886719,-25.983718872070312,-39.38697814941406,2023-09-09 16:29:02.4560,1694294942.456407,0.05163734778761864,-0.058563586324453354,0.010649767704308033,-0.940811038017273,0.0412445031106472,-0.22405999898910522,
0,2023-09-09 16:28:40.2140,02:53,10,1,2023-09-09 16:29:02.8280,1694294942.828341,-0.0011518171522766352,-0.005140966270118952,-0.0034882084000855684,0.1773834228515625,0.0407257080078125,-0.984710693359375,123.70994567871094,-26.526031494140625,-38.74705505371094,2023-09-09 16:29:02.5560,1694294942.556179,-0.02820468507707119,-0.03452363610267639,0.02486901730298996,-0.9986420273780823,0.020248394459486008,-0.19525142014026642,
0,2023-09-09 16:28:40.2140,02:53,10,1,2023-09-09 16:29:02.9280,1694294942.928411,-0.0011579424608498812,-0.004848284646868706,-0.00224903947673738,0.1767425537109375,0.0406494140625,-0.987213134765625,123.67216491699219,-26.569122314453125,-39.17962646484375,2023-09-09 16:29:02.6560,1694294942.6561232,-0.020799100399017334,-0.11053717136383057,-0.10185769945383072,-0.902603268623352,0.0155487060546875,-0.15101619064807892,
0,2023-09-09 16:28:40.2140,02:53,10,1,2023-09-09 16:29:03.0280,1694294943.028257,-0.0035776905715465546,-0.004001399502158165,-0.0004617921367753297,0.1768798828125,0.0405426025390625,-0.9873199462890625,123.72611999511719,-26.408203125,-39.02928161621094,2023-09-09 16:29:02.7560,1694294942.755824,0.0008034642087295651,-0.02508951723575592,0.0010282999137416482,-0.9065704345703125,-0.163375835865736,-0.2200469672679901,
0,2023-09-09 16:28:40.2140,02:53,10,1,2023-09-09 16:29:03.1280,1694294943.128382,0.009807889349758625,0.0005448827287182212,-0.0018346516881138086,0.1768341064453125,0.0400543212890625,-0.9847259521484375,123.77934265136719,-26.372955322265625,-38.900299072265625,2023-09-09 16:29:02.8560,1694294942.855905,0.014096765778958797,-0.05366364121437073,0.023842070251703262,-1.000579833984375,-0.0629730373620987,-0.07630914449691772,
0,2023-09-09 16:28:40.2140,02:53,10,1,2023-09-09 16:29:03.2290,1694294943.228502,0.002079662401229143,-0.003424026072025299,-0.002727875951677561,0.17236328125,0.0439910888671875,-0.9870147705078125,123.65303039550781,-26.281951904296875,-38.66539001464844,2023-09-09 16:29:02.9560,1694294942.9557161,-0.04652530327439308,-0.08940139412879944,-0.013562160544097424,-0.987869381904602,-0.00860593095421791,-0.09805294871330261,
0,2023-09-09 16:28:40.2140,02:53,10,1,2023-09-09 16:29:03.3280,1694294943.32803,0.00016351809608750045,0.0002133192028850317,-0.0038418760523200035,0.180908203125,0.042724609375,-0.970855712890625,123.80674743652344,-26.139739990234375,-38.56803894042969,2023-09-09 16:29:03.0560,1694294943.055546,-0.16699865460395813,-0.007586824707686901,-0.04064946994185448,-0.9833984375,0.1326751597225666,-0.10293567180633545,
0,2023-09-09 16:28:40.2140,02:53,10,1,2023-09-09 16:29:03.4290,1694294943.428524,-0.0010013486025854945,-0.0010098706698045135,-0.0012157330056652427,0.1805877685546875,0.03558349609375,-0.985321044921875,123.57926940917969,-26.23626708984375,-38.785369873046875,2023-09-09 16:29:03.1560,1694294943.1555018,-0.12329264730215073,0.23443445563316345,0.03446948155760765,-1.0334777235984802,0.204544086009264,-0.10258471965789795,
0,2023-09-09 16:28:40.2140,02:53,10,1,2023-09-09 16:29:03.5280,1694294943.5283341,0.0011211908422410488,-0.0013289173366501927,-0.0008135957177728415,0.173980712890625,0.035858154296875,-0.9836883544921875,123.39680480957031,-26.098983764648438,-38.633636474609375,2023-09-09 16:29:03.2550,1694294943.2552419,0.05047008767724037,0.2339891791343689,-0.07807344198226929,-0.9436492919921875,0.129913330078125,-0.09678645431995392,
0,2023-09-09 16:28:40.2140,02:53,10,1,2023-09-09 16:29:03.6280,1694294943.628271,-0.0014205301413312554,-0.003576891729608178,-0.004324440844357014,0.1784820556640625,0.0375213623046875,-0.987640380859375,123.52886962890625,-26.098876953125,-38.60832214355469,2023-09-09 16:29:03.3550,1694294943.354974,0.014023861847817898,0.10333569347858429,-0.0838327631354332,-0.8596801161766052,0.0414276160299778,-0.12744134664535522,
0,2023-09-09 16:28:40.2140,02:53,10,1,2023-09-09 16:29:03.7280,1694294943.728452,0.0004809668753296137,-0.006258961278945208,-0.0020455741323530674,0.1804962158203125,0.0393829345703125,-0.9861907958984375,123.43582153320312,-25.897323608398438,-38.73039245605469,2023-09-09 16:29:03.4550,1694294943.454821,0.014566680416464806,0.12048126757144928,-0.016765611246228218,-0.9347380995750427,0.1357574313879013,-0.14199820160865784,
0,2023-09-09 16:28:40.2140,02:53,10,1,2023-09-09 16:29:03.8290,1694294943.828505,-0.0029313412960618734,-0.0030032468494027853,-0.002255431143566966,0.1746673583984375,0.040191650390625,-0.983642578125,123.51873779296875,-26.0418701171875,-39.026123046875,2023-09-09 16:29:03.5550,1694294943.554628,-0.005786461289972067,0.0980389341711998,-0.036836955696344376,-1.0033110976219177,0.134124755859375,-0.14999382197856903,
0,2023-09-09 16:28:40.2140,02:53,10,1,2023-09-09 16:29:03.9280,1694294943.928403,-0.0025214808993041515,-0.0008402272942475975,-0.002243446884676814,0.1760711669921875,0.0405731201171875,-0.9847259521484375,123.41302490234375,-25.98675537109375,-39.17228698730469,2023-09-09 16:29:03.6550,1694294943.654696,-0.026787417009472847,0.014527931809425354,-0.04854724183678627,-0.9531250596046448,0.0812988169491291,-0.11645501852035522,
0,2023-09-09 16:28:40.2140,02:53,10,1,2023-09-09 16:29:04.0280,1694294944.028374,-0.0011747203534469008,-0.00512791657820344,-0.003590740030631423,0.177581787109375,0.0416412353515625,-0.9830322265625,123.57449340820312,-25.972885131835938,-38.85099792480469,2023-09-09 16:29:03.7540,1694294943.754359,0.019840272143483162,-0.0355626679956913,-0.047769732773303986,-0.9314727783203125,0.0539550706744194,-0.19610583782196045,
0,2023-09-09 16:28:40.2140,02:53,10,1,2023-09-09 16:29:04.1280,1694294944.128488,-0.0005270395777188241,-0.0057441722601652145,-0.003722566645592451,0.177459716796875,0.0391845703125,-0.98638916015625,123.59617614746094,-26.18212890625,-38.971160888671875,2023-09-09 16:29:03.8540,1694294943.8542008,0.036643221974372864,-0.027324441820383072,-0.04735654219985008,-0.895965576171875,0.0262756384909153,-0.19090263545513153,
0,2023-09-09 16:28:40.2140,02:53,10,1,2023-09-09 16:29:04.2290,1694294944.228602,-0.002043443499132991,-0.0029577065724879503,-0.0020519655663520098,0.1752471923828125,0.039886474609375,-0.9849700927734375,123.69471740722656,-26.25164794921875,-38.20280456542969,2023-09-09 16:29:03.9540,1694294943.953907,-0.05637766793370247,0.0014286409132182598,0.00944368913769722,-1.0220032334327698,0.0586547926068306,-0.13171382248401642,
0,2023-09-09 16:28:40.2140,02:53,10,1,2023-09-09 16:29:04.3280,1694294944.327534,-0.003659183392301202,-0.005272526293992996,-0.004798483569175005,0.17822265625,0.0405426025390625,-0.9863128662109375,123.57693481445312,-26.380386352539062,-39.16290283203125,2023-09-09 16:29:04.0540,1694294944.053876,-0.016564207151532173,0.045892246067523956,0.0115762148052454,-1.033645510673523,0.0947875939309597,-0.13967886567115784,
0,2023-09-09 16:28:40.2140,02:53,10,1,2023-09-09 16:29:04.4280,1694294944.428261,0.0002692455891519785,-0.0038248319178819656,-0.0006889597862027586,0.178009033203125,0.04168701171875,-0.9848785400390625,123.78623962402344,-26.488204956054688,-38.99713134765625,2023-09-09 16:29:04.1540,1694294944.153723,-0.04239460453391075,0.028075166046619415,0.024636823683977127,-0.9738311767578125,0.0541381798684597,-0.12419125437736511,
0,2023-09-09 16:28:40.2140,02:53,10,1,2023-09-09 16:29:04.5270,1694294944.52739,-0.002519882982596755,-0.005393966566771269,-0.001166198286227882,0.1754150390625,0.0411834716796875,-0.985687255859375,123.62152099609375,-26.2435302734375,-39.1048583984375,2023-09-09 16:29:04.2540,1694294944.253749,-0.05219190940260887,0.05046715959906578,0.04398046061396599,-0.9819947481155396,0.0627899244427681,-0.17404168844223022,
0,2023-09-09 16:28:40.2140,02:53,10,1,2023-09-09 16:29:04.6280,1694294944.628395,0.001502555445767939,-0.003824033075943589,-0.0025161546654999256,0.176055908203125,0.041015625,-0.9854736328125,123.51014709472656,-26.01007080078125,-38.95855712890625,2023-09-09 16:29:04.3530,1694294944.353401,-0.03264191001653671,0.045319799333810806,0.03578804433345795,-0.9822998046875,0.09869382157921791,-0.14759820699691772,
0,2023-09-09 16:28:40.2140,02:53,10,1,2023-09-09 16:29:04.7280,1694294944.728262,-0.0022863238118588924,-0.003347060875967145,-0.003573429537937045,0.1784515380859375,0.0420684814453125,-0.987762451171875,123.64166259765625,-26.295486450195312,-39.08708190917969,2023-09-09 16:29:04.4530,1694294944.4532208,0.07610727101564407,-0.019242282956838608,-0.006461174692958593,-0.9651489853858948,0.11671445891261101,-0.18714892864227295,
0,2023-09-09 16:28:40.2140,02:53,10,1,2023-09-09 16:29:04.8280,1694294944.828459,0.0002743055811151862,-0.006624347064644098,-0.002255697501823306,0.17724609375,0.0408172607421875,-0.9863433837890625,123.76527404785156,-26.234970092773438,-38.96473693847656,2023-09-09 16:29:04.5530,1694294944.553225,0.027418896555900574,-0.005766553804278374,0.016600169241428375,-0.9791107177734375,0.05035402253270149,-0.19499199092388153,
0,2023-09-09 16:28:40.2140,02:53,10,1,2023-09-09 16:29:04.9280,1694294944.928378,-0.0008026767172850668,-0.005260009318590164,0.0002511360798962414,0.1758880615234375,0.040374755859375,-0.986663818359375,123.40852355957031,-26.193267822265625,-39.15211486816406,2023-09-09 16:29:04.6530,1694294944.653044,-0.04095723107457161,0.03019091486930847,0.010099525563418865,-0.9867706894874573,0.072418212890625,-0.14334100484848022,
0,2023-09-09 16:28:40.2140,02:53,10,1,2023-09-09 16:29:05.0280,1694294945.0284672,-0.0023342606145888567,-0.004552940372377634,-0.0031886028591543436,0.178619384765625,0.041015625,-0.9866790771484375,123.55792236328125,-26.237548828125,-38.849456787109375,2023-09-09 16:29:04.7530,1694294944.752711,0.014473071321845055,-0.0016494402661919594,0.0066405790857970715,-0.9630279541015625,0.0995635837316513,-0.17871089279651642,
0,2023-09-09 16:28:40.2140,02:53,10,1,2023-09-09 16:29:05.1280,1694294945.128408,-0.0026549051981419325,-0.005192098673433065,-0.0017158746486529708,0.177520751953125,0.0403289794921875,-0.98480224609375,123.40444946289062,-26.071762084960938,-38.96331787109375,2023-09-09 16:29:04.8530,1694294944.852579,0.04569856822490692,-0.0162639357149601,-0.010940378531813622,-0.9849548935890198,0.1128692775964737,-0.16143791377544403,
0,2023-09-09 16:28:40.2140,02:53,10,1,2023-09-09 16:29:05.2290,1694294945.228507,-0.000693220819812268,-0.006955111399292946,0.00010652644414221868,0.17498779296875,0.0405426025390625,-0.9838714599609375,123.49224853515625,-26.257476806640625,-38.74559020996094,2023-09-09 16:29:04.9520,1694294944.952446,-0.0019920561462640762,0.01209220476448536,0.004460315685719252,-0.998199462890625,0.1405181884765625,-0.15548698604106903,
0,2023-09-09 16:28:40.2140,02:53,10,1,2023-09-09 16:29:05.3280,1694294945.328452,0.0017989652696996927,-0.0017749968683347106,-0.001344630029052496,0.1765289306640625,0.040924072265625,-0.984893798828125,123.69174194335938,-26.258285522460938,-38.53648376464844,2023-09-09 16:29:05.0520,1694294945.052391,0.04461172968149185,-0.010838544927537441,0.04477880895137787,-0.9971466064453125,0.1202697902917862,-0.17576593160629272,
0,2023-09-09 16:28:40.2140,02:53,10,1,2023-09-09 16:29:05.4280,1694294945.428061,-0.0020746025256812572,-0.0020999026019126177,-0.0034820830915123224,0.1776885986328125,0.041839599609375,-0.9863128662109375,123.5888671875,-26.047531127929688,-38.453460693359375,2023-09-09 16:29:05.1520,1694294945.1521091,0.1442660242319107,-0.008829987607896328,0.04171810299158096,-0.9864349365234375,0.0850372202694416,-0.19963069260120392,
0,2023-09-09 16:28:40.2140,02:53,10,1,2023-09-09 16:29:05.5280,1694294945.5284672,-0.0018628811230883002,-0.008620652370154858,-0.0029489181470125914,0.1776580810546875,0.039764404296875,-0.9865875244140625,123.60978698730469,-26.089431762695312,-38.7630615234375,2023-09-09 16:29:05.2520,1694294945.251912,0.09443501383066177,-0.05251927673816681,0.03759410232305527,-0.9822388291358948,0.03388978913426399,-0.19619742035865784,
0,2023-09-09 16:28:40.2140,02:53,10,1,2023-09-09 16:29:05.6290,1694294945.628603,-0.0018005631864070892,-0.002430134452879429,-0.0020503676496446133,0.17645263671875,0.040130615234375,-0.9856109619140625,123.62403869628906,-26.1741943359375,-38.56251525878906,2023-09-09 16:29:05.3520,1694294945.352007,-0.008062065578997135,-0.011819519102573395,-0.0059814732521772385,-0.9765624403953552,0.03547670692205429,-0.17472828924655914,
0,2023-09-09 16:28:40.2140,02:53,10,1,2023-09-09 16:29:05.7280,1694294945.728445,-0.0006844323943369091,-0.005246960092335939,-0.002587793627753854,0.1766357421875,0.0391998291015625,-0.984832763671875,123.57807922363281,-26.192276000976562,-38.93284606933594,2023-09-09 16:29:05.4520,1694294945.451657,-0.0021649617701768875,0.05153002589941025,0.049207448959350586,-0.9923248887062073,0.0169219970703125,-0.14801020920276642,
0,2023-09-09 16:28:40.2140,02:53,10,1,2023-09-09 16:29:05.8280,1694294945.8280802,0.0009179916232824326,-0.006624879315495491,-0.0019286612514406443,0.1766204833984375,0.0404205322265625,-0.9847259521484375,123.71151733398438,-25.789276123046875,-39.01631164550781,2023-09-09 16:29:05.5510,1694294945.551496,0.06462552398443222,0.0008157147094607353,0.04152582213282585,-0.9509888291358948,0.0885009691119194,-0.21633905172348022,
0,2023-09-09 16:28:40.2140,02:53,10,1,2023-09-09 16:29:05.9280,1694294945.928166,-0.0011062771081924438,-0.002883670851588249,-0.0026841999497264624,0.1771087646484375,0.039825439453125,-0.98602294921875,123.61030578613281,-26.131179809570312,-39.16557312011719,2023-09-09 16:29:05.6510,1694294945.651309,-0.062477633357048035,-0.0006073452532291412,0.03155019134283066,-0.9816437363624573,0.013885498046875,-0.1669768989086151,
0,2023-09-09 16:28:40.2140,02:53,10,1,2023-09-09 16:29:06.0280,1694294946.028401,0.0019462381023913622,-0.003733751829713583,-0.003436543047428131,0.1757354736328125,0.04034423828125,-0.98388671875,123.52137756347656,-26.09783935546875,-39.16609191894531,2023-09-09 16:29:05.7510,1694294945.751291,0.040947023779153824,-0.05957531929016113,-0.017136655747890472,-0.9026033282279968,0.0558776929974556,-0.2081145942211151,
0,2023-09-09 16:28:40.2140,02:53,10,1,2023-09-09 16:29:06.1280,1694294946.128164,-0.002430400811135769,-0.0025960493367165327,-0.0028575719334185123,0.1778106689453125,0.041290283203125,-0.9865264892578125,123.55685424804688,-26.2366943359375,-39.34776306152344,2023-09-09 16:29:05.8510,1694294945.850873,-0.0075388215482234955,-0.0357031486928463,0.015488699078559875,-0.956817626953125,-0.005371101200580597,-0.19627374410629272,
0,2023-09-09 16:28:40.2140,02:53,10,1,2023-09-09 16:29:06.2270,1694294946.227456,-0.00039494677912443876,-0.00490181427448988,-0.002463423879817128,0.1768798828125,0.04058837890625,-0.986572265625,123.63760375976562,-26.2742919921875,-38.62324523925781,2023-09-09 16:29:05.9510,1694294945.950852,-0.04850935563445091,0.012050126679241657,-0.008748231455683708,-0.997833251953125,0.035491943359375,-0.16184991598129272,
0,2023-09-09 16:28:40.2140,02:53,10,1,2023-09-09 16:29:06.3270,1694294946.326919,-0.0022354573011398315,-0.00444055488333106,-0.0030836742371320724,0.1759033203125,0.0402069091796875,-0.98583984375,123.57197570800781,-26.08160400390625,-39.148284912109375,2023-09-09 16:29:06.0510,1694294946.0507588,0.0055702561512589455,0.04415852949023247,0.029059400781989098,-0.9843597412109375,0.062271103262901306,-0.19131460785865784,
0,2023-09-09 16:28:40.2140,02:53,10,1,2023-09-09 16:29:06.4280,1694294946.428097,0.0006133259739726782,-0.0028122980147600174,-0.0028626318089663982,0.1767120361328125,0.040191650390625,-0.9843292236328125,123.35942077636719,-26.025436401367188,-38.768890380859375,2023-09-09 16:29:06.1510,1694294946.150651,0.007169551216065884,0.02633252739906311,-0.045652151107788086,-0.995361328125,0.093841552734375,-0.15536490082740784,
0,2023-09-09 16:28:40.2140,02:53,10,1,2023-09-09 16:29:06.5290,1694294946.5290442,0.0005406216951087117,-0.0019915117882192135,-0.003314037574455142,0.1771087646484375,0.0413055419921875,-0.9842681884765625,123.64479064941406,-26.304397583007812,-38.495758056640625,2023-09-09 16:29:06.2500,1694294946.250366,-0.022024020552635193,0.027367696166038513,-0.005168110132217407,-1.0049898028373718,0.0747680738568306,-0.14019769430160522,
0,2023-09-09 16:28:40.2140,02:53,10,1,2023-09-09 16:29:06.6280,1694294946.628211,-0.0011145329335704446,-0.006629939656704664,-0.0034621094819158316,0.1759796142578125,0.040283203125,-0.9865570068359375,123.37062072753906,-26.261215209960938,-38.47161865234375,2023-09-09 16:29:06.3500,1694294946.3502069,-0.007812860421836376,0.07218124717473984,0.06513721495866776,-0.9758910536766052,0.1399078294634819,-0.20388783514499664,
0,2023-09-09 16:28:40.2140,02:53,10,1,2023-09-09 16:29:06.7280,1694294946.7283912,0.0002713761059567332,-0.003748665563762188,-0.0014114753575995564,0.175628662109375,0.0404052734375,-0.9851531982421875,123.66212463378906,-26.024688720703125,-38.69203186035156,2023-09-09 16:29:06.4500,1694294946.4499822,0.009150875732302666,0.05891217291355133,0.04919316619634628,-1.026702880859375,0.0845642015337944,-0.17979426681995392,
0,2023-09-09 16:28:40.2140,02:53,10,1,2023-09-09 16:29:06.8280,1694294946.828391,-0.002304965863004327,-0.002773149637505412,-0.0025126924738287926,0.17657470703125,0.04150390625,-0.984405517578125,123.37648010253906,-25.906326293945312,-38.93751525878906,2023-09-09 16:29:06.5500,1694294946.549868,-0.002335204044356942,0.012298333458602428,0.004967847373336554,-0.9755095839500427,0.1275024339556694,-0.18963618576526642,
0,2023-09-09 16:28:40.2140,02:53,10,1,2023-09-09 16:29:06.9280,1694294946.928186,-0.0009917612187564373,-0.0035662390291690826,-0.0037678403314203024,0.1764678955078125,0.040740966796875,-0.98480224609375,123.43896484375,-26.097991943359375,-38.75321960449219,2023-09-09 16:29:06.6500,1694294946.6497378,-0.06478839367628098,0.04588945209980011,-0.017025768756866455,-0.9811860918998718,0.11444094032049179,-0.18228143453598022,
0,2023-09-09 16:28:40.2140,02:53,10,1,2023-09-09 16:29:07.0290,1694294947.0288138,-0.003471963107585907,-0.003948136232793331,-0.0025212145410478115,0.1758880615234375,0.0405731201171875,-0.985198974609375,123.56600952148438,-26.114028930664062,-38.63020324707031,2023-09-09 16:29:06.7500,1694294946.749559,-0.03721082955598831,0.04133358225226402,-0.0005409345030784607,-0.9444121718406677,0.1248626708984375,-0.18098445236682892,
0,2023-09-09 16:28:40.2140,02:53,10,1,2023-09-09 16:29:07.1290,1694294947.128658,-0.0033803503029048443,-0.0054336474277079105,0.0003451456723269075,0.1767730712890625,0.0402679443359375,-0.985260009765625,123.6259765625,-26.246322631835938,-38.831451416015625,2023-09-09 16:29:06.8500,1694294946.849829,-0.0027637730818241835,0.022672809660434723,-0.023797720670700073,-0.9806671142578125,0.104827880859375,-0.16629022359848022,
0,2023-09-09 16:28:40.2140,02:53,10,1,2023-09-09 16:29:07.2270,1694294947.227438,-0.0027451864443719387,-0.0009805759182199836,-0.0006295712664723396,0.17645263671875,0.041046142578125,-0.9838409423828125,123.74412536621094,-26.167190551757812,-38.892547607421875,2023-09-09 16:29:06.9490,1694294946.949307,-0.018500590696930885,0.0013969498686492443,-0.006374954711645842,-0.9572449922561646,0.0758056789636612,-0.18023675680160522,
0,2023-09-09 16:28:40.2140,02:53,10,1,2023-09-09 16:29:07.3280,1694294947.328298,-0.0027395938523113728,-0.005923935677856207,-0.001967543503269553,0.1765289306640625,0.04071044921875,-0.9851531982421875,123.67254638671875,-26.139892578125,-39.11546325683594,2023-09-09 16:29:07.0500,1694294947.050091,0.01225345954298973,0.028786495327949524,0.025030972436070442,-0.995635986328125,0.1643524020910263,-0.16064444184303284,
0,2023-09-09 16:28:40.2140,02:53,10,1,2023-09-09 16:29:07.4280,1694294947.428362,-0.0011741877533495426,-0.004559864290058613,4.394215648062527e-05,0.1772003173828125,0.040740966796875,-0.9852294921875,123.54220581054688,-26.418045043945312,-38.884063720703125,2023-09-09 16:29:07.1490,1694294947.1489959,0.02214430645108223,0.05331367999315262,0.02488589473068714,-1.0048981308937073,0.1501007229089737,-0.15968313813209534,
0,2023-09-09 16:28:40.2140,02:53,10,1,2023-09-09 16:29:07.5290,1694294947.528955,-0.002347310073673725,-0.0054693338461220264,-0.0022796657867729664,0.176849365234375,0.0404205322265625,-0.9852294921875,123.48677062988281,-26.028289794921875,-38.51287841796875,2023-09-09 16:29:07.2490,1694294947.2488198,-0.008597294799983501,-0.005421408452093601,-0.024223361164331436,-0.9525910019874573,0.1340026929974556,-0.1807098090648651,
0,2023-09-09 16:28:40.2140,02:53,10,1,2023-09-09 16:29:07.6280,1694294947.628066,0.0004215783847030252,-0.005360943265259266,-0.001960885478183627,0.1765594482421875,0.0399322509765625,-0.98529052734375,123.59617614746094,-26.32867431640625,-39.030670166015625,2023-09-09 16:29:07.3490,1694294947.348582,0.0588453933596611,0.050250910222530365,0.08159295469522476,-1.036346435546875,0.1810607835650444,-0.18043513596057892,
0,2023-09-09 16:28:40.2140,02:53,10,1,2023-09-09 16:29:07.7280,1694294947.7282329,-0.0006471481174230576,-0.005656288005411625,-0.0015478292480111122,0.17681884765625,0.0409393310546875,-0.984649658203125,123.67085266113281,-26.402587890625,-38.96478271484375,2023-09-09 16:29:07.4480,1694294947.448403,0.13780426979064941,0.009715733118355274,0.0681721493601799,-0.9887847900390625,0.2008972093462944,-0.19706717133522034,
0,2023-09-09 16:28:40.2140,02:53,10,1,2023-09-09 16:29:07.8280,1694294947.8283072,-0.0009416937828063965,-0.0022114890161901712,-0.002439189236611128,0.17657470703125,0.0400390625,-0.9836273193359375,123.65350341796875,-26.172927856445312,-39.012603759765625,2023-09-09 16:29:07.5480,1694294947.5482368,0.034728340804576874,0.07349071651697159,0.12757189571857452,-1.0399932861328125,0.1464080810546875,-0.18702691793441772,
0,2023-09-09 16:28:40.2140,02:53,10,1,2023-09-09 16:29:07.9280,1694294947.928214,-0.0005083974683657289,-0.0023877902422100306,-5.379585491027683e-05,0.176666259765625,0.0410003662109375,-0.984375,123.75599670410156,-26.238128662109375,-38.76441955566406,2023-09-09 16:29:07.6480,1694294947.648057,0.05041402578353882,0.05803040415048599,0.04060347005724907,-1.013778805732727,0.1491699293255806,-0.18722525238990784,
0,2023-09-09 16:28:40.2140,02:53,10,1,2023-09-09 16:29:08.0280,1694294948.028249,0.0004239752306602895,-0.0037497307639569044,-0.0026463831309229136,0.1768646240234375,0.041656494140625,-0.984954833984375,123.61233520507812,-26.18414306640625,-39.119903564453125,2023-09-09 16:29:07.7480,1694294947.7478518,-0.0478963628411293,0.1064545288681984,0.08766835182905197,-0.982284426689148,0.1557464674115181,-0.20207208395004272,
0,2023-09-09 16:28:40.2140,02:53,10,1,2023-09-09 16:29:08.1280,1694294948.128154,-0.001540638622827828,-0.0033505228348076344,-0.003567570587620139,0.1770782470703125,0.0413055419921875,-0.9854278564453125,123.5970458984375,-25.990188598632812,-38.88409423828125,2023-09-09 16:29:07.8480,1694294947.8476648,0.01448578666895628,0.06457498669624329,0.032085251063108444,-1.0559234619140625,0.1425781100988388,-0.18115223944187164,
