SessionID,SessionDate,SessionDuration,SessionFrequency,RecordID,Timestamp,timeIntervalSince1970,GyroX,GyroY,GyroZ,AccX,AccY,AccZ,MagX,MagY,MagZ,WatchTimestamp,WatchtImeIntervalSince1970,WatchGyroX,WatchGyroY,WatchGyroZ,WatchAccX,WatchAccY,WatchAccZ
0,2023-09-09 15:41:22.1160,00:58,10,1,2023-09-09 15:41:22.2210,1694292082.2214398,0.00048123320448212326,-0.014026602730154991,-0.005341502372175455,-0.044677734375,0.0901947021484375,-0.997833251953125,105.92877197265625,-23.1473388671875,-43.57679748535156,2023-09-09 15:41:21.8240,1694292081.823848,0.08514931052923203,-0.027918994426727295,0.008174460381269455,-0.022155756130814552,0.48910507559776306,-0.8695831894874573,
0,2023-09-09 15:41:22.1160,00:58,10,1,2023-09-09 15:41:22.3210,1694292082.3213,-0.005090099759399891,-0.014846057631075382,-0.005123389419168234,-0.039306640625,0.089569091796875,-0.9951629638671875,105.98037719726562,-23.426605224609375,-42.84391784667969,2023-09-09 15:41:21.9210,1694292081.920569,0.06447478383779526,-0.008069654926657677,0.007332967594265938,-0.0318756029009819,0.4968107342720032,-0.8703460693359375,
0,2023-09-09 15:41:22.1160,00:58,10,1,2023-09-09 15:41:22.4210,1694292082.420948,-0.001303351018577814,-0.002883404493331909,-0.0013539510546252131,-0.044403076171875,0.0886383056640625,-0.9935760498046875,105.9306640625,-23.192535400390625,-43.2662353515625,2023-09-09 15:41:22.0150,1694292082.015271,0.025651156902313232,0.013047747313976288,-0.01823187991976738,-0.034255966544151306,0.48744186758995056,-0.8761597275733948,
0,2023-09-09 15:41:22.1160,00:58,10,1,2023-09-09 15:41:22.5210,1694292082.521285,0.00016298545233439654,0.0034256239887326956,0.004231496714055538,-0.040771484375,0.0869140625,-0.99664306640625,105.83747863769531,-22.944961547851562,-43.51777648925781,2023-09-09 15:41:22.1150,1694292082.115261,-0.016621598973870277,-0.0007612761110067368,0.00458521768450737,-0.031707752496004105,0.45993027091026306,-0.8847656846046448,
0,2023-09-09 15:41:22.1160,00:58,10,1,2023-09-09 15:41:22.6210,1694292082.62115,0.0026229473296552896,-0.0003456783015280962,4.6871635277057067e-05,-0.0437469482421875,0.0851593017578125,-0.99578857421875,105.78115844726562,-23.039825439453125,-43.84898376464844,2023-09-09 15:41:22.2150,1694292082.215153,0.010216940194368362,0.0033927224576473236,0.0055275773629546165,-0.03216552175581455,0.4618375897407532,-0.8768158555030823,
0,2023-09-09 15:41:22.1160,00:58,10,1,2023-09-09 15:41:22.7220,1694292082.722198,0.0007936219917610288,0.002156361471861601,-0.0037742317654192448,-0.0460205078125,0.0924530029296875,-0.993896484375,105.87010192871094,-22.902587890625,-43.98774719238281,2023-09-09 15:41:22.3150,1694292082.315304,0.014230123721063137,-0.004978790879249573,-0.013881840743124485,-0.01988220401108265,0.4701383709907532,-0.8725891709327698,
0,2023-09-09 15:41:22.1160,00:58,10,1,2023-09-09 15:41:22.8200,1694292082.820468,0.0007936219917610288,0.002156361471861601,-0.0037742317654192448,-0.0407562255859375,0.08526611328125,-0.9970703125,105.78536987304688,-22.870559692382812,-44.208770751953125,2023-09-09 15:41:22.4150,1694292082.414802,-0.017008090391755104,-0.008645697496831417,-0.0024528177455067635,-0.033538803458213806,0.4631956219673157,-0.8817902207374573,
0,2023-09-09 15:41:22.1160,00:58,10,1,2023-09-09 15:41:22.9220,1694292082.921622,-0.004835501778870821,-0.004571848548948765,-0.0044408212415874004,-0.0399932861328125,0.0888824462890625,-0.997650146484375,105.84733581542969,-22.8056640625,-44.664947509765625,2023-09-09 15:41:22.5150,1694292082.514902,0.0020096099469810724,-0.0011572884395718575,0.005873255897313356,-0.0352630577981472,0.47398361563682556,-0.8743897080421448,
0,2023-09-09 15:41:22.1160,00:58,10,1,2023-09-09 15:41:23.0240,1694292083.02406,0.0021310613956302404,0.004975317511707544,-0.004239752423018217,-0.0417633056640625,0.0898590087890625,-0.9978179931640625,105.70396423339844,-22.960830688476562,-44.96495056152344,2023-09-09 15:41:22.6150,1694292082.614534,0.0015586701920256019,0.0012620603665709496,-0.004828623961657286,-0.0321807786822319,0.47460922598838806,-0.8775787949562073,
0,2023-09-09 15:41:22.1160,00:58,10,1,2023-09-09 15:41:23.1250,1694292083.125427,0.0013382384786382318,0.00293267285451293,-0.009071258828043938,-0.0451812744140625,0.088653564453125,-0.9953765869140625,105.76026916503906,-22.94244384765625,-45.28480529785156,2023-09-09 15:41:22.7140,1694292082.714366,0.009596755728125572,0.00780944200232625,-0.001490684342570603,-0.031127914786338806,0.46737655997276306,-0.8775177597999573,
0,2023-09-09 15:41:22.1160,00:58,10,1,2023-09-09 15:41:23.2240,1694292083.223998,0.0013382384786382318,0.00293267285451293,-0.009071258828043938,-0.0423431396484375,0.0853118896484375,-0.996429443359375,105.6103515625,-22.567153930664062,-46.16050720214844,2023-09-09 15:41:22.8140,1694292082.8141751,0.049371201545000076,-0.0017568990588188171,0.011106932535767555,-0.025176983326673508,0.47621139883995056,-0.8772736191749573,
0,2023-09-09 15:41:22.1160,00:58,10,1,2023-09-09 15:41:23.3240,1694292083.3236809,-0.001252484624274075,0.0006388923502527177,-0.0035779569298028946,-0.03961181640625,0.083984375,-0.99822998046875,105.62069702148438,-22.531173706054688,-46.24702453613281,2023-09-09 15:41:22.9140,1694292082.914106,0.06869416683912277,-0.005407559685409069,0.009307501837611198,-0.03572082705795765,0.4783018231391907,-0.8785248398780823,
0,2023-09-09 15:41:22.1160,00:58,10,1,2023-09-09 15:41:23.4240,1694292083.424022,-0.00014993596414569765,-0.00390312890522182,-0.0036812876351177692,-0.0406341552734375,0.0819244384765625,-0.995208740234375,105.622802734375,-22.542617797851562,-46.28767395019531,2023-09-09 15:41:23.0140,1694292083.014048,0.05093860253691673,0.018882598727941513,0.018462782725691795,-0.028640735894441605,0.45194992423057556,-0.8760529160499573,
0,2023-09-09 15:41:22.1160,00:58,10,1,2023-09-09 15:41:23.5220,1694292083.521717,0.004819522611796856,0.008166849613189697,0.0057473680935800076,-0.04296875,0.0890960693359375,-0.9957733154296875,105.57510375976562,-22.56292724609375,-46.200958251953125,2023-09-09 15:41:23.1140,1694292083.11373,0.11464947462081909,0.030111152678728104,0.03237536922097206,-0.032028188928961754,0.4588316082954407,-0.89532470703125,
0,2023-09-09 15:41:22.1160,00:58,10,1,2023-09-09 15:41:23.6220,1694292083.622,0.0031273500062525272,-0.015202920883893967,0.011717909015715122,-0.046722412109375,0.0850677490234375,-1.0036163330078125,105.51229858398438,-22.624404907226562,-45.59974670410156,2023-09-09 15:41:23.2140,1694292083.213635,0.1406874656677246,0.0864788144826889,0.037081971764564514,-0.024642936885356903,0.4421079754829407,-0.9061279892921448,
0,2023-09-09 15:41:22.1160,00:58,10,1,2023-09-09 15:41:23.7240,1694292083.723741,-0.004839496221393347,-0.00872105360031128,0.004189951345324516,-0.0428009033203125,0.09625244140625,-1.0083160400390625,105.44728088378906,-22.6046142578125,-45.77952575683594,2023-09-09 15:41:23.3140,1694292083.313565,0.2896135747432709,-0.030294131487607956,0.24418188631534576,-0.003204342909157276,0.4617612957954407,-0.8614502549171448,
0,2023-09-09 15:41:22.1160,00:58,10,1,2023-09-09 15:41:23.8210,1694292083.82146,-0.005260808393359184,-0.0466492623090744,-0.00138031633105129,-0.0452880859375,0.0908355712890625,-1.010986328125,105.27590942382812,-22.311141967773438,-45.8411865234375,2023-09-09 15:41:23.4130,1694292083.41329,-0.22059257328510284,-0.05685463547706604,0.4767451882362366,0.033401490189135075,0.4351041913032532,-0.8470306992530823,
0,2023-09-09 15:41:22.1160,00:58,10,1,2023-09-09 15:41:23.9250,1694292083.925167,-0.0023241406306624413,-0.01215653121471405,0.003165965899825096,-0.0476226806640625,0.08795166015625,-0.9961090087890625,105.30348205566406,-22.313934326171875,-45.4879150390625,2023-09-09 15:41:23.5130,1694292083.513205,-0.04797559231519699,-0.30998504161834717,0.6103799939155579,-0.006240847520530224,0.4227293133735657,-0.9222260117530823,
0,2023-09-09 15:41:22.1160,00:58,10,1,2023-09-09 15:41:24.0210,1694292084.021092,-0.04649373143911362,-0.2376791387796402,0.06518885493278503,-0.0581207275390625,0.0742034912109375,-0.98126220703125,104.94525146484375,-22.223464965820312,-45.60078430175781,2023-09-09 15:41:23.6130,1694292083.6128368,1.0349632501602173,-0.32523736357688904,0.35060906410217285,0.06460570497438312,0.6719663739204407,-1.0142059326171875,
0,2023-09-09 15:41:22.1160,00:58,10,1,2023-09-09 15:41:24.1250,1694292084.124837,0.008290686644613743,0.19353245198726654,-0.0021225393284112215,0.01953125,0.1598663330078125,-1.1875,104.37020874023438,-22.33642578125,-45.323272705078125,2023-09-09 15:41:23.7130,1694292083.712801,-1.1838666200637817,-0.15942855179309845,0.050409264862537384,0.05479429196566343,0.47607409954071045,-0.8987427353858948,
0,2023-09-09 15:41:22.1160,00:58,10,1,2023-09-09 15:41:24.2230,1694292084.223332,0.10603482276201248,-0.5024157166481018,0.1710364669561386,-0.1390380859375,0.073944091796875,-1.009796142578125,102.03048706054688,-22.462493896484375,-44.09986877441406,2023-09-09 15:41:23.8130,1694292083.812752,-2.12548828125,-0.6147526502609253,0.07670745253562927,-0.0606536902487278,0.5003812909126282,-0.744278073310852,
0,2023-09-09 15:41:22.1160,00:58,10,1,2023-09-09 15:41:24.3240,1694292084.3239012,-0.31935110688209534,-0.2408996969461441,0.48853880167007446,-0.142364501953125,-0.0420989990234375,-0.7881011962890625,100.84127807617188,-22.3394775390625,-44.235504150390625,2023-09-09 15:41:23.9130,1694292083.9126549,-1.8102468252182007,-0.2881978452205658,-0.019626444205641747,-0.041107192635536194,0.8057706952095032,-0.7006989121437073,
0,2023-09-09 15:41:22.1160,00:58,10,1,2023-09-09 15:41:24.4230,1694292084.423198,1.8857440948486328,-0.7015000581741333,0.8290785551071167,-0.2038116455078125,-0.0659332275390625,-0.9562530517578125,97.482177734375,-26.001190185546875,-41.500335693359375,2023-09-09 15:41:24.0130,1694292084.012785,-1.7609113454818726,0.011524018831551075,0.06525279581546783,-0.0699462890625,0.7418821454048157,-0.5227510035037994,
0,2023-09-09 15:41:22.1160,00:58,10,1,2023-09-09 15:41:24.5250,1694292084.525161,1.2233680486679077,-0.5167965292930603,-0.5315227508544922,-0.1067352294921875,-0.1530914306640625,-0.868377685546875,98.45831298828125,-33.3040771484375,-36.64747619628906,2023-09-09 15:41:24.1120,1694292084.11235,-0.7599084973335266,0.0007544620893895626,0.11555337905883789,-0.04719545319676399,0.8590543866157532,-0.3898164629936218,
0,2023-09-09 15:41:22.1160,00:58,10,1,2023-09-09 15:41:24.6250,1694292084.6252651,-2.073463201522827,-1.4069559574127197,0.11863450706005096,-0.2371673583984375,-0.105194091796875,-0.571807861328125,98.15664672851562,-29.701492309570312,-38.63825988769531,2023-09-09 15:41:24.2120,1694292084.212074,-0.19562338292598724,-0.2295951098203659,0.142314612865448,-0.0330810621380806,0.9715268015861511,-0.2834474444389343,
0,2023-09-09 15:41:22.1160,00:58,10,1,2023-09-09 15:41:24.7250,1694292084.724956,0.696439266204834,1.1559855937957764,-0.6049585938453674,-0.0280303955078125,-0.0848846435546875,-1.0089263916015625,104.18917846679688,-33.614837646484375,-37.34794616699219,2023-09-09 15:41:24.3120,1694292084.311985,-0.1667875200510025,-0.2851850092411041,0.23949047923088074,0.010025016963481903,1.0187986493110657,-0.29267898201942444,
0,2023-09-09 15:41:22.1160,00:58,10,1,2023-09-09 15:41:24.8250,1694292084.8247252,-0.0059785302728414536,0.6311441659927368,-0.48829564452171326,0.11651611328125,-0.2568817138671875,-1.0140228271484375,108.95849609375,-34.95494079589844,-36.741424560546875,2023-09-09 15:41:24.4120,1694292084.411851,-1.135716438293457,-0.13937029242515564,0.27458640933036804,-0.014480620622634888,1.0137479901313782,-0.2593996375799179,
0,2023-09-09 15:41:22.1160,00:58,10,1,2023-09-09 15:41:24.9230,1694292084.923263,0.38478362560272217,-0.07424280792474747,0.10894432663917542,0.0470428466796875,-0.211151123046875,-0.9629058837890625,109.84028625488281,-36.20512390136719,-35.39923095703125,2023-09-09 15:41:24.5120,1694292084.5116339,-1.764548659324646,-0.12512025237083435,0.17878638207912445,0.024871813133358955,0.8174130916595459,0.013076558709144592,
0,2023-09-09 15:41:22.1160,00:58,10,1,2023-09-09 15:41:25.0240,1694292085.023542,0.6860353350639343,-0.40820959210395813,0.2123042643070221,0.00927734375,-0.2839813232421875,-0.8787689208984375,108.83013916015625,-38.64524841308594,-33.13221740722656,2023-09-09 15:41:24.6110,1694292084.6114159,-0.07877052575349808,-0.492084264755249,0.00015987642109394073,0.02035520412027836,1.0289153456687927,-0.0478060282766819,
0,2023-09-09 15:41:22.1160,00:58,10,1,2023-09-09 15:41:25.1230,1694292085.12326,0.1549999713897705,-0.21686705946922302,0.08445123583078384,0.039306640625,-0.3135223388671875,-0.869415283203125,108.26275634765625,-39.43241882324219,-31.86041259765625,2023-09-09 15:41:24.7110,1694292084.711072,0.1714022308588028,-0.5206968784332275,0.17837251722812653,0.03411861136555672,1.0388181805610657,-0.1194765493273735,
0,2023-09-09 15:41:22.1160,00:58,10,1,2023-09-09 15:41:25.2230,1694292085.2229362,0.4201618731021881,-0.3516744077205658,-0.15138153731822968,0.0102996826171875,-0.3205413818359375,-0.9392242431640625,107.0264892578125,-39.866973876953125,-31.577911376953125,2023-09-09 15:41:24.8110,1694292084.811386,0.20739439129829407,-0.13790835440158844,0.388241708278656,0.03665155544877052,1.023177981376648,-0.12788408994674683,
0,2023-09-09 15:41:22.1160,00:58,10,1,2023-09-09 15:41:25.3220,1694292085.321964,-0.0289355106651783,-0.3235493004322052,0.08157848566770554,-0.0418548583984375,-0.3460540771484375,-0.9253387451171875,106.40806579589844,-39.7135009765625,-31.513763427734375,2023-09-09 15:41:24.9110,1694292084.911014,0.13838529586791992,-0.02503678761422634,0.4158151149749756,0.05964655429124832,1.0169370770454407,-0.1561739295721054,
0,2023-09-09 15:41:22.1160,00:58,10,1,2023-09-09 15:41:25.4150,1694292085.4146562,-0.28159013390541077,-0.19694608449935913,0.00842597521841526,0.0272064208984375,-0.343505859375,-0.9235687255859375,107.51878356933594,-39.657073974609375,-29.49993896484375,2023-09-09 15:41:25.0110,1694292085.010871,0.035798732191324234,-0.10457421839237213,0.12832912802696228,0.11523433029651642,0.9499205350875854,-0.1650697886943817,
0,2023-09-09 15:41:22.1160,00:58,10,1,2023-09-09 15:41:25.5280,1694292085.5278249,-0.021505292505025864,-0.2872757315635681,-0.07760345190763474,-0.00250244140625,-0.3152008056640625,-0.9095916748046875,106.91928100585938,-38.70561218261719,-31.103805541992188,2023-09-09 15:41:25.1110,1694292085.1107311,-0.0846276804804802,-0.13810129463672638,0.08904211223125458,0.16842646896839142,1.0228880047798157,-0.10226462781429291,
0,2023-09-09 15:41:22.1160,00:58,10,1,2023-09-09 15:41:25.6140,1694292085.614437,-0.04438797011971474,0.01025423500686884,0.37825995683670044,-0.02911376953125,-0.2918701171875,-0.912200927734375,105.8651123046875,-37.63374328613281,-32.68150329589844,2023-09-09 15:41:25.2110,1694292085.210541,0.1598854511976242,-0.043436966836452484,0.036255694925785065,0.14044180512428284,1.1227567791938782,-0.17904679477214813,
0,2023-09-09 15:41:22.1160,00:58,10,1,2023-09-09 15:41:25.7270,1694292085.7271318,-0.6924983263015747,-0.21948975324630737,0.5929341912269592,-0.0306549072265625,-0.2738800048828125,-1.0099945068359375,103.55661010742188,-35.06343078613281,-34.378936767578125,2023-09-09 15:41:25.3100,1694292085.3101602,-0.1555153727531433,-0.055243294686079025,0.0023009246215224266,0.12806695699691772,1.0515745878219604,-0.1187593936920166,
0,2023-09-09 15:41:22.1160,00:58,10,1,2023-09-09 15:41:25.8150,1694292085.814791,-0.10443878918886185,-0.05553649738430977,-0.2839086949825287,-0.0054473876953125,-0.2525482177734375,-1.0229949951171875,103.53335571289062,-34.81170654296875,-35.39613342285156,2023-09-09 15:41:25.4100,1694292085.410252,0.1350237876176834,0.03150225430727005,-0.03581556677818298,0.12313833832740784,0.9848630428314209,-0.13107319176197052,
0,2023-09-09 15:41:22.1160,00:58,10,1,2023-09-09 15:41:25.9300,1694292085.9303179,0.4476512670516968,0.07378207892179489,-0.010743191465735435,-0.0071868896484375,-0.290191650390625,-0.980621337890625,103.23956298828125,-36.86466979980469,-32.21855163574219,2023-09-09 15:41:25.5100,1694292085.509928,0.13927346467971802,-0.060203831642866135,-0.005513888318091631,0.13319389522075653,0.991592288017273,-0.1419832408428192,
0,2023-09-09 15:41:22.1160,00:58,10,1,2023-09-09 15:41:26.0270,1694292086.027421,-0.1343729943037033,0.33251190185546875,0.24069224298000336,-0.04547119140625,-0.28472900390625,-0.931854248046875,103.25346374511719,-37.094329833984375,-31.735641479492188,2023-09-09 15:41:25.6090,1694292085.609396,0.26563557982444763,-0.05375538393855095,0.08695842325687408,0.16273492574691772,1.0151365399360657,-0.1558687537908554,
0,2023-09-09 15:41:22.1160,00:58,10,1,2023-09-09 15:41:26.1320,1694292086.1317239,-0.2625647783279419,-0.28968188166618347,-0.08867660909891129,-0.0413055419921875,-0.261383056640625,-0.9872589111328125,102.16665649414062,-35.48005676269531,-34.65435791015625,2023-09-09 15:41:25.7100,1694292085.709727,-0.303291380405426,-0.2087191343307495,-0.004436140414327383,0.13836662471294403,0.929244875907898,-0.1394045203924179,
0,2023-09-09 15:41:22.1160,00:58,10,1,2023-09-09 15:41:26.3270,1694292086.327314,-0.04914624243974686,0.39325007796287537,-0.04462791979312897,-0.064788818359375,-0.285675048828125,-1.029937744140625,102.322509765625,-35.527191162109375,-32.59663391113281,2023-09-09 15:41:25.8090,1694292085.8093882,0.2988528609275818,-0.16625544428825378,0.07664988934993744,0.14302057027816772,0.9207762479782104,-0.1748506873846054,
0,2023-09-09 15:41:22.1160,00:58,10,1,2023-09-09 15:41:26.4190,1694292086.418963,-0.03814765065908432,0.21161876618862152,0.05089833587408066,-0.08447265625,-0.2268829345703125,-0.977386474609375,101.76431274414062,-34.84373474121094,-35.16029357910156,2023-09-09 15:41:25.9090,1694292085.909343,0.052440691739320755,-0.08539494127035141,0.036282893270254135,0.16116322576999664,0.9443356990814209,-0.22221389412879944,
0,2023-09-09 15:41:22.1160,00:58,10,1,2023-09-09 15:41:26.5210,1694292086.5205,0.008754609152674675,0.07506625354290009,0.08729974925518036,-0.07977294921875,-0.2525482177734375,-0.9804534912109375,101.36245727539062,-34.485321044921875,-36.26957702636719,2023-09-09 15:41:26.0090,1694292086.009296,-0.16478830575942993,-0.04840203374624252,-0.07932479679584503,0.13749685883522034,0.9423673748970032,-0.2525941729545593,
0,2023-09-09 15:41:22.1160,00:58,10,1,2023-09-09 15:41:26.6210,1694292086.620963,0.21548967063426971,0.08320780098438263,0.2939314842224121,-0.099273681640625,-0.2027435302734375,-0.9307861328125,100.71931457519531,-34.51593017578125,-35.645599365234375,2023-09-09 15:41:26.1090,1694292086.109119,0.06302822381258011,-0.04039976745843887,-0.09304041415452957,0.13041678816080093,0.9547116756439209,-0.23875445127487183,
0,2023-09-09 15:41:22.1160,00:58,10,1,2023-09-09 15:41:26.7180,1694292086.718348,-0.2067374587059021,0.23141857981681824,-0.08166423439979553,-0.067230224609375,-0.2349853515625,-1.0030059814453125,101.09866333007812,-34.46992492675781,-35.58935546875,2023-09-09 15:41:26.2090,1694292086.2088509,0.08515915274620056,0.0116443932056427,-0.012057974934577942,0.12913506478071213,0.9707334637641907,-0.24151629209518433,
0,2023-09-09 15:41:22.1160,00:58,10,1,2023-09-09 15:41:26.8280,1694292086.827549,0.12192030996084213,-0.29099908471107483,-0.141980841755867,-0.0538177490234375,-0.2406768798828125,-0.926971435546875,100.55718994140625,-35.11442565917969,-35.09599304199219,2023-09-09 15:41:26.3090,1694292086.308598,0.15135443210601807,-0.025440391153097153,-0.035898856818675995,0.11863696575164795,0.9720455408096313,-0.24629250168800354,
0,2023-09-09 15:41:22.1160,00:58,10,1,2023-09-09 15:41:26.9510,1694292086.950914,0.059181030839681625,0.07547850906848907,0.01336001418530941,-0.104644775390625,-0.248779296875,-0.967620849609375,100.07817077636719,-34.33067321777344,-35.43803405761719,2023-09-09 15:41:26.4080,1694292086.4084911,0.08458837121725082,-0.045523419976234436,-0.036467939615249634,0.10513298958539963,0.968490481376648,-0.25602737069129944,
0,2023-09-09 15:41:22.1160,00:58,10,1,2023-09-09 15:41:27.0190,1694292087.018801,0.059181030839681625,0.07547850906848907,0.01336001418530941,-0.1285400390625,-0.243621826171875,-0.9437408447265625,99.95930480957031,-34.40663146972656,-35.532867431640625,2023-09-09 15:41:26.5080,1694292086.508473,0.06472665071487427,0.009953686036169529,0.03736693039536476,0.09646599739789963,0.9631651639938354,-0.2871858477592468,
0,2023-09-09 15:41:22.1160,00:58,10,1,2023-09-09 15:41:27.1270,1694292087.1271992,0.629493772983551,-0.0335257351398468,0.18454134464263916,-0.122833251953125,-0.2610321044921875,-0.9618072509765625,99.98970031738281,-35.68833923339844,-33.27642822265625,2023-09-09 15:41:26.6080,1694292086.60819,-0.1392224133014679,0.007704779505729675,-0.027516625821590424,0.050842203199863434,0.8385465145111084,-0.3267518877983093,
0,2023-09-09 15:41:22.1160,00:58,10,1,2023-09-09 15:41:27.2190,1694292087.219267,-0.5161358118057251,0.13103364408016205,0.056413739919662476,0.0084991455078125,-0.2972412109375,-1.007965087890625,100.3892822265625,-34.37181091308594,-35.514312744140625,2023-09-09 15:41:26.7080,1694292086.7079902,0.2645605504512787,-0.002083003520965576,-0.003438487183302641,0.10455311834812164,0.9388425350189209,-0.2670289874076843,
0,2023-09-09 15:41:22.1160,00:58,10,1,2023-09-09 15:41:27.3180,1694292087.318447,-0.02828250452876091,0.024879250675439835,-0.293191134929657,-0.0955963134765625,-0.2538604736328125,-0.9561920166015625,100.01556396484375,-33.87049865722656,-36.12400817871094,2023-09-09 15:41:26.8080,1694292086.807832,-0.09042458236217499,-0.053280942142009735,-0.029110893607139587,0.10879511386156082,0.9401548504829407,-0.2618562877178192,
0,2023-09-09 15:41:22.1160,00:58,10,1,2023-09-09 15:41:27.4180,1694292087.418468,-0.007533550262451172,0.03525732457637787,-0.13434556126594543,-0.12286376953125,-0.2305755615234375,-0.9430084228515625,100.17996215820312,-34.11631774902344,-36.12724304199219,2023-09-09 15:41:26.9080,1694292086.9076219,0.05028792470693588,0.006513947155326605,-0.003947949502617121,0.09420768171548843,0.9651793241500854,-0.3149568438529968,
0,2023-09-09 15:41:22.1160,00:58,10,1,2023-09-09 15:41:27.5180,1694292087.518209,0.2894853353500366,-0.1824566274881363,-0.04761891812086105,-0.209259033203125,-0.2514190673828125,-1.0019378662109375,99.94352722167969,-34.4989013671875,-35.56298828125,2023-09-09 15:41:27.0080,1694292087.007506,0.07299409806728363,0.028167445212602615,-0.09218410402536392,0.09838861227035522,0.9456327557563782,-0.3168794810771942,
0,2023-09-09 15:41:22.1160,00:58,10,1,2023-09-09 15:41:27.6270,1694292087.6269011,0.07070878893136978,0.46230584383010864,0.062012504786252975,-0.04052734375,-0.25933837890625,-0.9957733154296875,100.74612426757812,-34.96849060058594,-35.57745361328125,2023-09-09 15:41:27.1070,1694292087.107421,0.15849162638187408,-0.07874395698308945,-0.00771911907941103,0.13172905892133713,0.9798429012298584,-0.22039812803268433,
0,2023-09-09 15:41:22.1160,00:58,10,1,2023-09-09 15:41:27.7180,1694292087.718045,0.39611831307411194,0.2574821412563324,-0.32821011543273926,-0.03204345703125,-0.3079986572265625,-0.8974761962890625,101.37774658203125,-36.40776062011719,-35.08384704589844,2023-09-09 15:41:27.2070,1694292087.207209,0.04649525135755539,-0.010496062226593494,0.004958626348525286,0.11854545027017593,0.9803463816642761,-0.2586671710014343,
0,2023-09-09 15:41:22.1160,00:58,10,1,2023-09-09 15:41:27.8180,1694292087.818207,1.3710299730300903,0.6932684779167175,-1.1232249736785889,0.0005950927734375,-0.3500823974609375,-0.8105926513671875,105.00276184082031,-40.016937255859375,-32.07005310058594,2023-09-09 15:41:27.3070,1694292087.306974,0.15031711757183075,0.0012426194734871387,-0.006321658380329609,0.09739679098129272,0.9638975262641907,-0.31553664803504944,
0,2023-09-09 15:41:22.1160,00:58,10,1,2023-09-09 15:41:27.9180,1694292087.917872,0.3028528094291687,0.21655067801475525,0.24239692091941833,-0.10845947265625,-0.2313079833984375,-0.8292694091796875,105.24757385253906,-41.653656005859375,-30.480926513671875,2023-09-09 15:41:27.4070,1694292087.406914,0.12063499540090561,0.029854025691747665,-0.0544666163623333,0.09944147616624832,0.984039306640625,-0.3233339786529541,
0,2023-09-09 15:41:22.1160,00:58,10,1,2023-09-09 15:41:28.0180,1694292088.0180678,0.1742953658103943,0.177232563495636,0.24989132583141327,0.0693206787109375,-0.567535400390625,-0.8911590576171875,104.99382019042969,-42.234222412109375,-29.752899169921875,2023-09-09 15:41:27.5070,1694292087.5066152,0.2814609706401825,-0.10349377989768982,0.01822286657989025,0.15246576070785522,1.0087736248970032,-0.2412111461162567,
0,2023-09-09 15:41:22.1160,00:58,10,1,2023-09-09 15:41:28.1240,1694292088.124445,-0.4858276844024658,0.46022993326187134,-0.020653080195188522,0.0296630859375,-0.4317474365234375,-0.98052978515625,105.88536071777344,-40.5869140625,-31.85009765625,2023-09-09 15:41:27.6060,1694292087.606463,0.07691660523414612,0.041064999997615814,0.02820732444524765,0.13281244784593582,1.0556639432907104,-0.26231399178504944,
0,2023-09-09 15:41:22.1160,00:58,10,1,2023-09-09 15:41:28.2180,1694292088.218233,-0.08268395811319351,0.9456730484962463,-0.1250615119934082,0.118927001953125,-0.4052886962890625,-0.8647308349609375,108.72439575195312,-40.31831359863281,-31.679885864257812,2023-09-09 15:41:27.7060,1694292087.7061958,-0.39995354413986206,-0.025360628962516785,-0.10873960703611374,0.14393609017133713,0.96533203125,-0.23599261045455933,
0,2023-09-09 15:41:22.1160,00:58,10,1,2023-09-09 15:41:28.3180,1694292088.31777,0.023780163377523422,0.24541881680488586,0.21549367904663086,0.1466827392578125,-0.3797149658203125,-0.8996734619140625,108.84326171875,-39.91584777832031,-31.65081787109375,2023-09-09 15:41:27.8060,1694292087.806195,-0.643928587436676,0.07694163918495178,-0.07529473304748535,0.10217276960611343,0.9260709285736084,-0.19972246885299683,
0,2023-09-09 15:41:22.1160,00:58,10,1,2023-09-09 15:41:28.4220,1694292088.42185,0.06345753371715546,0.1158594936132431,0.07767482101917267,0.2035064697265625,-0.4566650390625,-0.87738037109375,108.62419128417969,-40.14616394042969,-30.681396484375,2023-09-09 15:41:27.9060,1694292087.90587,-0.6295850872993469,-0.11334734410047531,-0.15330536663532257,0.07261651009321213,0.8703764081001282,-0.04725666344165802,
0,2023-09-09 15:41:22.1160,00:58,10,1,2023-09-09 15:41:28.5150,1694292088.5146298,-1.194809079170227,-0.2145887315273285,-0.1305055469274521,0.1027984619140625,-0.366912841796875,-1.0120849609375,106.29397583007812,-36.880645751953125,-33.9730224609375,2023-09-09 15:41:28.0060,1694292088.005847,-0.13992182910442352,-0.0005162646993994713,-0.07842011749744415,0.01843254268169403,0.9939419627189636,-0.14445514976978302,
0,2023-09-09 15:41:22.1160,00:58,10,1,2023-09-09 15:41:28.6140,1694292088.614303,-0.32456690073013306,-1.137665867805481,-0.6022464632987976,0.059967041015625,-0.3102569580078125,-1.000518798828125,103.68148803710938,-35.112701416015625,-35.2589111328125,2023-09-09 15:41:28.1060,1694292088.105721,-0.03657080605626106,0.03333570808172226,-0.06742226332426071,0.02236931398510933,0.9915770292282104,-0.15982073545455933,
0,2023-09-09 15:41:22.1160,00:58,10,1,2023-09-09 15:41:28.7250,1694292088.724813,0.0634990781545639,-0.21995925903320312,0.06272409856319427,-0.052032470703125,-0.232330322265625,-0.839691162109375,103.46925354003906,-35.67469787597656,-33.082366943359375,2023-09-09 15:41:28.2050,1694292088.205443,-0.02818351238965988,-0.021490655839443207,-0.0024785171262919903,0.04067987576127052,0.9874572157859802,-0.18005390465259552,
0,2023-09-09 15:41:22.1160,00:58,10,1,2023-09-09 15:41:28.8250,1694292088.8250089,0.8468335270881653,-0.8483079075813293,-0.44240909814834595,-0.0477142333984375,-0.463470458984375,-0.949249267578125,101.71467590332031,-38.61134338378906,-31.906906127929688,2023-09-09 15:41:28.3050,1694292088.305301,0.01187056303024292,0.020655464380979538,0.04113267734646797,-0.0028229504823684692,0.9519651532173157,-0.16180437803268433,
0,2023-09-09 15:41:22.1160,00:58,10,1,2023-09-09 15:41:28.9250,1694292088.925364,-0.9033927321434021,-0.4773833453655243,-0.09682135283946991,-0.19000244140625,-0.2769317626953125,-0.9043426513671875,99.84468078613281,-36.27166748046875,-33.4788818359375,2023-09-09 15:41:28.4050,1694292088.405057,0.012019433081150055,0.059151992201805115,0.1594902127981186,0.051773034036159515,1.0268247723579407,-0.15980547666549683,
0,2023-09-09 15:41:22.1160,00:58,10,1,2023-09-09 15:41:29.0260,1694292089.025591,0.24514184892177582,0.17827066779136658,-0.13913339376449585,-0.2028045654296875,-0.2585296630859375,-0.859588623046875,100.81385803222656,-36.889801025390625,-32.54106140136719,2023-09-09 15:41:28.5050,1694292088.505138,0.1667582094669342,0.02208864688873291,0.09777594357728958,0.08013910800218582,1.0068206787109375,-0.1307985782623291,
0,2023-09-09 15:41:22.1160,00:58,10,1,2023-09-09 15:41:29.1220,1694292089.121635,-0.16675037145614624,0.0333198718726635,-0.04159591346979141,-0.2028045654296875,-0.2585296630859375,-0.859588623046875,102.10238647460938,-36.29347229003906,-34.3236083984375,2023-09-09 15:41:28.6050,1694292088.604745,-0.030625831335783005,0.020430829375982285,0.11043334752321243,0.06669611483812332,0.9924315214157104,-0.1891939640045166,
0,2023-09-09 15:41:22.1160,00:58,10,1,2023-09-09 15:41:29.2210,1694292089.221487,-0.6739177107810974,0.009948237799108028,0.11745233088731766,-0.050567626953125,-0.27008056640625,-1.030731201171875,102.36451721191406,-33.94879150390625,-36.82640075683594,2023-09-09 15:41:28.7050,1694292088.704603,0.1577419489622116,0.10462293773889542,0.12628954648971558,0.03730768710374832,1.0208128690719604,-0.22227494418621063,
0,2023-09-09 15:41:22.1160,00:58,10,1,2023-09-09 15:41:29.3220,1694292089.321615,0.37613528966903687,0.19807367026805878,-0.1267361044883728,-0.1129608154296875,-0.245697021484375,-0.97357177734375,102.70478820800781,-34.631988525390625,-36.48716735839844,2023-09-09 15:41:28.8040,1694292088.8042479,-0.176946222782135,0.04324226826429367,0.06579900532960892,0.08575434237718582,0.989089846611023,-0.1733247935771942,
0,2023-09-09 15:41:22.1160,00:58,10,1,2023-09-09 15:41:29.4220,1694292089.422364,0.013079049997031689,0.28181329369544983,0.12779365479946136,-0.0830078125,-0.1817474365234375,-1.04296875,103.56736755371094,-34.665771484375,-36.51472473144531,2023-09-09 15:41:28.9040,1694292088.904311,-0.2700587213039398,0.04107871651649475,0.05316637083888054,0.08781428635120392,1.0045469403266907,-0.16258256882429123,
0,2023-09-09 15:41:22.1160,00:58,10,1,2023-09-09 15:41:29.5220,1694292089.522362,0.25654682517051697,0.19287943840026855,0.4511498808860779,-0.02789306640625,-0.21728515625,-1.0244293212890625,104.1231689453125,-34.88868713378906,-36.13751220703125,2023-09-09 15:41:29.0040,1694292089.004087,0.12095537036657333,-0.008329315111041069,0.04609154909849167,0.06587214022874832,0.9540860652923584,-0.1487581580877304,
0,2023-09-09 15:41:22.1160,00:58,10,1,2023-09-09 15:41:29.6220,1694292089.6222758,-0.5346258282661438,0.056474726647138596,-0.025619609281420708,-0.0053558349609375,-0.2969818115234375,-0.977081298828125,104.20852661132812,-33.29713439941406,-37.5321044921875,2023-09-09 15:41:29.1040,1694292089.104095,0.23024597764015198,-0.05985894799232483,0.04032909870147705,0.09808341413736343,0.996230959892273,-0.1500856578350067,
0,2023-09-09 15:41:22.1160,00:58,10,1,2023-09-09 15:41:29.7240,1694292089.7237458,0.26986557245254517,0.07663778960704803,0.26604312658309937,-0.098175048828125,-0.145477294921875,-0.97589111328125,104.29289245605469,-34.25306701660156,-36.83650207519531,2023-09-09 15:41:29.2040,1694292089.203803,0.06178425997495651,-0.0442083515226841,-0.0038233138620853424,0.10411066561937332,0.9750364422798157,-0.15744036436080933,
0,2023-09-09 15:41:22.1160,00:58,10,1,2023-09-09 15:41:29.8240,1694292089.824122,0.18006964027881622,0.02004667930305004,0.14846989512443542,-0.0019378662109375,-0.1884613037109375,-0.932708740234375,104.29067993164062,-34.67134094238281,-36.21934509277344,2023-09-09 15:41:29.3040,1694292089.303724,0.15774133801460266,-0.011572778224945068,0.028419476002454758,0.10412593185901642,0.9998930096626282,-0.18548603355884552,
0,2023-09-09 15:41:22.1160,00:58,10,1,2023-09-09 15:41:29.9240,1694292089.924121,0.3766311705112457,0.08590478450059891,0.40676990151405334,-0.0190277099609375,-0.1929473876953125,-0.9232635498046875,104.0423583984375,-35.61041259765625,-35.85652160644531,2023-09-09 15:41:29.4040,1694292089.4036179,0.043159376829862595,0.06225483864545822,0.05572060868144035,0.10061638802289963,1.0123441815376282,-0.16851824522018433,
0,2023-09-09 15:41:22.1160,00:58,10,1,2023-09-09 15:41:30.0250,1694292090.025481,0.09845253825187683,-0.1069008857011795,0.2700972557067871,-0.0266876220703125,-0.245452880859375,-0.9849853515625,102.9251708984375,-35.9112548828125,-35.22174072265625,2023-09-09 15:41:29.5030,1694292089.50348,0.20704683661460876,0.027793003246188164,0.0683935284614563,0.08911126106977463,0.9511718153953552,-0.1913607120513916,
0,2023-09-09 15:41:22.1160,00:58,10,1,2023-09-09 15:41:30.1240,1694292090.124464,0.15416426956653595,-0.08528746664524078,-0.04891135171055794,-0.0393524169921875,-0.23876953125,-0.9787445068359375,102.40069580078125,-36.646087646484375,-34.489471435546875,2023-09-09 15:41:29.6030,1694292089.6031709,0.0816744789481163,-0.008850627578794956,0.022455759346485138,0.13146968930959702,1.0088348388671875,-0.2157747596502304,
0,2023-09-09 15:41:22.1160,00:58,10,1,2023-09-09 15:41:30.2240,1694292090.22409,0.1056971326470375,-0.10941623896360397,0.11816072463989258,-0.0400543212890625,-0.30999755859375,-0.958709716796875,101.58958435058594,-36.97381591796875,-33.019500732421875,2023-09-09 15:41:29.7030,1694292089.703014,0.015359703451395035,0.014402097091078758,-0.10338769108057022,0.07627860456705093,0.9554442167282104,-0.2098085880279541,
0,2023-09-09 15:41:22.1160,00:58,10,1,2023-09-09 15:41:30.3240,1694292090.324123,-0.3984091579914093,0.2775208353996277,0.4390793740749359,-0.1187286376953125,-0.300689697265625,-0.95245361328125,102.02137756347656,-35.16815185546875,-34.99586486816406,2023-09-09 15:41:29.8030,1694292089.802878,-0.06622443348169327,-0.0288885198533535,-0.05658179894089699,0.09440606087446213,0.9452207684516907,-0.1598055064678192,
0,2023-09-09 15:41:22.1160,00:58,10,1,2023-09-09 15:41:30.4230,1694292090.423204,-0.8364086151123047,0.9001327157020569,0.06278828531503677,-0.0045623779296875,-0.2303619384765625,-0.9751739501953125,104.36782836914062,-32.47288513183594,-37.17396545410156,2023-09-09 15:41:29.9030,1694292089.902719,-0.07855387777090073,-0.02378949522972107,-0.027614962309598923,0.09507745504379272,0.967178225517273,-0.1636965274810791,
0,2023-09-09 15:41:22.1160,00:58,10,1,2023-09-09 15:41:30.5250,1694292090.524759,-0.3490853011608124,0.11026312410831451,-0.2732272744178772,0.06146240234375,-0.19354248046875,-0.9922637939453125,105.29707336425781,-31.584747314453125,-38.054534912109375,2023-09-09 15:41:30.0020,1694292090.0024729,0.07685801386833191,7.176026701927185e-05,-0.02248901128768921,0.08970633894205093,0.9793546795845032,-0.2012941539287567,
0,2023-09-09 15:41:22.1160,00:58,10,1,2023-09-09 15:41:30.6240,1694292090.624496,-0.22775380313396454,0.3107248544692993,0.08537082374095917,0.0678558349609375,-0.17120361328125,-0.95391845703125,106.40103149414062,-30.237823486328125,-38.91026306152344,2023-09-09 15:41:30.1020,1694292090.10238,-0.02326159179210663,0.0006127813830971718,-0.009898683056235313,0.08464042097330093,0.9852902293205261,-0.19587725400924683,
0,2023-09-09 15:41:22.1160,00:58,10,1,2023-09-09 15:41:30.7240,1694292090.723947,0.008006527088582516,-0.020784640684723854,0.10860450565814972,0.090911865234375,-0.1500396728515625,-0.9971466064453125,106.65083312988281,-30.316452026367188,-39.19361877441406,2023-09-09 15:41:30.2020,1694292090.202079,-0.07626055926084518,-0.034884095191955566,-0.06753378361463547,0.09025567024946213,0.9712218046188354,-0.20062273740768433,
0,2023-09-09 15:41:22.1160,00:58,10,1,2023-09-09 15:41:30.8240,1694292090.8239222,-0.12986771762371063,-0.17796574532985687,0.13087598979473114,0.0981903076171875,-0.1638641357421875,-1.03009033203125,106.982421875,-30.47613525390625,-38.8865966796875,2023-09-09 15:41:30.3020,1694292090.302134,0.006247698329389095,-0.07669505476951599,-0.08812924474477768,0.09898370504379272,0.9698637127876282,-0.19892898201942444,
0,2023-09-09 15:41:22.1160,00:58,10,1,2023-09-09 15:41:30.9240,1694292090.92409,-0.15614698827266693,0.3733845055103302,0.05771496146917343,0.1186370849609375,-0.142669677734375,-0.9777069091796875,108.34468078613281,-30.3316650390625,-39.66423034667969,2023-09-09 15:41:30.4020,1694292090.401793,0.05339157581329346,-0.03436317667365074,-0.058684565126895905,0.07687373459339142,1.0097503662109375,-0.1850282996892929,
0,2023-09-09 15:41:22.1160,00:58,10,1,2023-09-09 15:41:31.0240,1694292091.023879,0.22129856050014496,-0.26334187388420105,0.13749128580093384,0.1275787353515625,-0.1314239501953125,-0.9730377197265625,107.65071105957031,-30.636642456054688,-39.16996765136719,2023-09-09 15:41:30.5040,1694292090.504497,0.3762587606906891,-0.08949873596429825,-0.06668773293495178,0.08865348994731903,0.9566190242767334,-0.20664994418621063,
0,2023-09-09 15:41:22.1160,00:58,10,1,2023-09-09 15:41:31.1240,1694292091.123839,-0.002540922025218606,0.24421213567256927,-0.057556770741939545,0.146820068359375,-0.1519317626953125,-0.9545135498046875,108.38468933105469,-30.702896118164062,-39.168670654296875,2023-09-09 15:41:30.6020,1694292090.601603,-0.02951895445585251,-0.037052303552627563,-0.00542656984180212,0.06477349251508713,0.9337767362594604,-0.2261202335357666,
0,2023-09-09 15:41:22.1160,00:58,10,1,2023-09-09 15:41:31.2240,1694292091.223754,-0.06142234802246094,0.25315210223197937,-0.11676017194986343,0.1681060791015625,-0.14300537109375,-0.9745941162109375,109.60049438476562,-30.411041259765625,-39.53031921386719,2023-09-09 15:41:30.7010,1694292090.7014198,0.08658881485462189,-0.05657554045319557,-0.03593417629599571,0.04225151985883713,0.9433287382125854,-0.2500459551811218,
0,2023-09-09 15:41:22.1160,00:58,10,1,2023-09-09 15:41:31.3200,1694292091.3202991,0.4120408296585083,0.2710951566696167,-0.19285334646701813,0.1902313232421875,-0.1817779541015625,-0.9685821533203125,111.10885620117188,-31.4039306640625,-37.885986328125,2023-09-09 15:41:30.8010,1694292090.80118,0.17323042452335358,-0.07287634909152985,-0.024121960625052452,0.05516045168042183,0.9761503338813782,-0.25064101815223694,
0,2023-09-09 15:41:22.1160,00:58,10,1,2023-09-09 15:41:31.4240,1694292091.423892,0.0010045443195849657,0.23820404708385468,-0.0316934809088707,0.1946563720703125,-0.1556854248046875,-0.97210693359375,110.89938354492188,-31.533126831054688,-38.19677734375,2023-09-09 15:41:30.9010,1694292090.9011102,-0.011319112032651901,-0.06887535005807877,0.005543622653931379,0.05487053096294403,0.9784849286079407,-0.24153155088424683,
0,2023-09-09 15:41:22.1160,00:58,10,1,2023-09-09 15:41:31.5240,1694292091.524321,0.010363158769905567,-0.2872759699821472,0.10943488031625748,0.2005157470703125,-0.164581298828125,-0.9465484619140625,109.98385620117188,-31.777191162109375,-38.35780334472656,2023-09-09 15:41:31.0010,1694292091.0009708,0.034182194620370865,-0.03758560121059418,0.007761303801089525,0.050842225551605225,0.9381866455078125,-0.2634279429912567,
0,2023-09-09 15:41:22.1160,00:58,10,1,2023-09-09 15:41:31.6240,1694292091.623918,0.06996151059865952,-0.04331391677260399,0.0712270438671112,0.20831298828125,-0.195892333984375,-1.01324462890625,109.81166076660156,-31.99560546875,-38.014739990234375,2023-09-09 15:41:31.1010,1694292091.100766,-0.07581767439842224,-0.014751926064491272,-0.026375293731689453,0.052215516567230225,0.9390867352485657,-0.2698213458061218,
0,2023-09-09 15:41:22.1160,00:58,10,1,2023-09-09 15:41:31.7210,1694292091.720629,-0.023146331310272217,0.15029630064964294,-0.005616873037070036,0.169708251953125,-0.1490631103515625,-0.9664764404296875,109.81166076660156,-31.99560546875,-38.014739990234375,2023-09-09 15:41:31.2010,1694292091.200659,-0.05553051456809044,-0.005703037604689598,-0.019695421680808067,0.055236753076314926,0.9606778621673584,-0.2613527178764343,
0,2023-09-09 15:41:22.1160,00:58,10,1,2023-09-09 15:41:31.8240,1694292091.824023,0.11100348085165024,-0.01019857544451952,0.06443677842617035,0.192108154296875,-0.1759490966796875,-0.9716796875,110.08058166503906,-32.459991455078125,-37.15119934082031,2023-09-09 15:41:31.3000,1694292091.300343,0.07069726288318634,0.0027028312906622887,-0.014929194003343582,0.04786676540970802,0.968429446220398,-0.2837678790092468,
0,2023-09-09 15:41:22.1160,00:58,10,1,2023-09-09 15:41:31.9240,1694292091.923901,-0.1611417531967163,0.31830739974975586,0.35063204169273376,0.1930999755859375,-0.145416259765625,-0.923004150390625,108.62265014648438,-32.49806213378906,-37.34498596191406,2023-09-09 15:41:31.4000,1694292091.400264,0.1797797977924347,-0.07207580655813217,-0.021976452320814133,0.05955498293042183,0.9761045575141907,-0.2529451251029968,
0,2023-09-09 15:41:22.1160,00:58,10,1,2023-09-09 15:41:32.0240,1694292092.023861,-0.025541579350829124,0.1744847148656845,-0.05461903661489487,0.2264404296875,-0.20953369140625,-0.9808349609375,108.76698303222656,-31.279281616210938,-37.99822998046875,2023-09-09 15:41:31.5010,1694292091.500638,-0.01084659993648529,-0.03535081446170807,-0.018712081015110016,0.047408998012542725,0.9286344051361084,-0.2653505206108093,
0,2023-09-09 15:41:22.1160,00:58,10,1,2023-09-09 15:41:32.1240,1694292092.1240559,0.19713596999645233,-0.17597129940986633,0.03710928559303284,0.1913604736328125,-0.2476806640625,-1.0276336669921875,108.88296508789062,-30.616485595703125,-38.62446594238281,2023-09-09 15:41:31.6000,1694292091.599973,0.19617901742458344,-0.04355814307928085,0.004699500743299723,0.04957574978470802,0.9581754803657532,-0.28765884041786194,
0,2023-09-09 15:41:22.1160,00:58,10,1,2023-09-09 15:41:32.2230,1694292092.2231221,-0.09669085592031479,0.04174717888236046,0.3724806308746338,0.1946563720703125,-0.1996307373046875,-0.9166717529296875,108.00599670410156,-31.195083618164062,-38.28926086425781,2023-09-09 15:41:31.7000,1694292091.6999679,0.26829707622528076,-0.02155071124434471,-0.03966566547751427,0.015289243310689926,0.933395266532898,-0.3367311358451843,
0,2023-09-09 15:41:22.1160,00:58,10,1,2023-09-09 15:41:32.3240,1694292092.323966,-0.7211943864822388,0.2926049828529358,0.27106159925460815,0.2012786865234375,-0.1721954345703125,-1.0108795166015625,108.3099365234375,-30.2396240234375,-39.010986328125,2023-09-09 15:41:31.8000,1694292091.799563,0.4819551706314087,0.02497764304280281,-0.06691613048315048,0.022994931787252426,0.9467161297798157,-0.38575756549835205,
0,2023-09-09 15:41:22.1160,00:58,10,1,2023-09-09 15:41:32.4240,1694292092.423863,-0.720940887928009,1.2154837846755981,0.13127653300762177,0.2444915771484375,-0.0537261962890625,-0.9713592529296875,110.50238037109375,-27.4918212890625,-40.68693542480469,2023-09-09 15:41:31.8990,1694292091.899387,0.20193883776664734,0.13095733523368835,-0.14311109483242035,0.015975911170244217,0.868087649345398,-0.37452712655067444,
0,2023-09-09 15:41:22.1160,00:58,10,1,2023-09-09 15:41:32.5240,1694292092.523775,-0.9674281477928162,0.9328624606132507,0.3153233230113983,0.362762451171875,-0.1184234619140625,-0.805908203125,113.55360412597656,-25.722808837890625,-41.97212219238281,2023-09-09 15:41:31.9990,1694292091.999244,0.10504977405071259,0.13877251744270325,-0.18078599870204926,0.004760691896080971,0.9466093182563782,-0.4864045977592468,
0,2023-09-09 15:41:22.1160,00:58,10,1,2023-09-09 15:41:32.6240,1694292092.624247,0.2784079313278198,0.4879875183105469,0.45951539278030396,0.376953125,-0.058013916015625,-0.9424285888671875,116.99984741210938,-23.290786743164062,-42.39537048339844,2023-09-09 15:41:32.0990,1694292092.099093,0.6917620301246643,0.04715258628129959,-0.10853604227304459,0.03675836963520851,0.9466704726219177,-0.4807283878326416,
0,2023-09-09 15:41:22.1160,00:58,10,1,2023-09-09 15:41:32.7240,1694292092.7237911,0.7388767004013062,1.227452039718628,-0.3455595374107361,0.4412841796875,0.101470947265625,-0.886810302734375,120.62034606933594,-24.8675537109375,-40.81565856933594,2023-09-09 15:41:32.1990,1694292092.1989489,-0.2628263533115387,-0.016985386610031128,-0.10042159259319305,-0.007354785222560167,0.8512418866157532,-0.45112624764442444,
0,2023-09-09 15:41:22.1160,00:58,10,1,2023-09-09 15:41:32.8240,1694292092.823782,0.06803417950868607,0.6052611470222473,-0.9954070448875427,0.6474761962890625,0.183380126953125,-0.9041900634765625,124.71759033203125,-26.28192138671875,-39.48558044433594,2023-09-09 15:41:32.2990,1694292092.298811,-0.08236126601696014,-0.06424744427204132,-0.16627396643161774,-0.016143834218382835,0.9233396053314209,-0.36947646737098694,
0,2023-09-09 15:41:22.1160,00:58,10,1,2023-09-09 15:41:32.9240,1694292092.923925,0.5176807045936584,0.16444407403469086,-1.2440788745880127,0.5391693115234375,0.1202545166015625,-0.7195892333984375,131.1992950439453,-25.574752807617188,-37.048858642578125,2023-09-09 15:41:32.3980,1694292092.398491,0.24275830388069153,-0.039134763181209564,-0.10854533314704895,-0.03244023397564888,0.9559476971626282,-0.36390700936317444,
0,2023-09-09 15:41:22.1160,00:58,10,1,2023-09-09 15:41:33.0230,1694292093.022794,-0.35251012444496155,0.8027169704437256,-2.0456037521362305,0.788665771484375,0.15484619140625,-0.5933380126953125,133.3964385986328,-21.672454833984375,-37.494781494140625,2023-09-09 15:41:32.4980,1694292092.498395,-0.2854963541030884,0.11809346824884415,-0.0958021730184555,-0.043792784214019775,0.8695678114891052,-0.4384767413139343,
0,2023-09-09 15:41:22.1160,00:58,10,1,2023-09-09 15:41:33.1240,1694292093.123838,-0.5820152163505554,0.9776597619056702,-1.5248740911483765,0.793365478515625,0.2587127685546875,-0.5739898681640625,140.19105529785156,-13.26300048828125,-35.044769287109375,2023-09-09 15:41:32.5980,1694292092.598322,-0.4986010789871216,0.1674952358007431,-0.2413765788078308,-0.13549810647964478,0.9408110976219177,-0.4615633189678192,
0,2023-09-09 15:41:22.1160,00:58,10,1,2023-09-09 15:41:33.2230,1694292093.223102,-1.360608696937561,1.1497015953063965,-1.3146284818649292,0.701202392578125,0.434783935546875,-0.5528411865234375,144.0779266357422,-4.6397552490234375,-32.36763000488281,2023-09-09 15:41:32.6980,1694292092.698011,-0.36961400508880615,-0.02262689545750618,-0.5891091823577881,-0.3992615044116974,0.9602964520454407,-0.3564454913139343,
0,2023-09-09 15:41:22.1160,00:58,10,1,2023-09-09 15:41:33.3240,1694292093.323767,-0.9823107123374939,1.0442062616348267,-1.3934763669967651,0.7718658447265625,0.522918701171875,-0.383758544921875,147.7471466064453,2.203521728515625,-26.472763061523438,2023-09-09 15:41:32.7980,1694292092.797899,-0.8248416185379028,-0.09938865154981613,-0.9569123983383179,-0.2185821682214737,0.9113767743110657,-0.2700807452201843,
0,2023-09-09 15:41:22.1160,00:58,10,1,2023-09-09 15:41:33.4240,1694292093.423664,-1.430303931236267,-0.8139520287513733,0.5155155658721924,0.7660369873046875,0.67169189453125,-0.376312255859375,148.5914764404297,9.188125610351562,-21.429122924804688,2023-09-09 15:41:32.8980,1694292092.897712,-0.4138323962688446,-0.25920069217681885,-1.1956369876861572,-0.2132415771484375,0.9056242108345032,-0.18872088193893433,
0,2023-09-09 15:41:22.1160,00:58,10,1,2023-09-09 15:41:33.5240,1694292093.5236878,-0.06783950328826904,-0.38073909282684326,0.18556320667266846,0.5980682373046875,0.6221771240234375,-0.4144439697265625,148.00875854492188,8.925704956054688,-22.95367431640625,2023-09-09 15:41:32.9970,1694292092.997488,-1.200446367263794,-0.2020668238401413,-1.2882386445999146,-0.2963409125804901,0.8709409832954407,-0.08837908506393433,
0,2023-09-09 15:41:22.1160,00:58,10,1,2023-09-09 15:41:33.6240,1694292093.623815,-0.10017799586057663,-0.4719579517841339,-0.5814575552940369,0.67279052734375,0.8064117431640625,-0.2306365966796875,147.11294555664062,9.71337890625,-23.46563720703125,2023-09-09 15:41:33.0980,1694292093.0975652,-1.0660996437072754,0.10481481999158859,-1.1145576238632202,-0.4452361464500427,0.8420103192329407,-0.11373922973871231,
0,2023-09-09 15:41:22.1160,00:58,10,1,2023-09-09 15:41:33.7240,1694292093.723771,0.008070709183812141,0.07634377479553223,-0.9069701433181763,0.582305908203125,0.639434814453125,-0.3739166259765625,144.51878356933594,13.114288330078125,-24.610458374023438,2023-09-09 15:41:33.1970,1694292093.1973839,-1.619376540184021,0.16740868985652924,-0.9613724946975708,-0.45951831340789795,0.7947996258735657,0.004852088168263435,
0,2023-09-09 15:41:22.1160,00:58,10,1,2023-09-09 15:41:33.8240,1694292093.823649,-0.0431530624628067,-0.17385408282279968,-1.1332958936691284,0.5535125732421875,0.7488555908203125,-0.31500244140625,143.035400390625,15.623458862304688,-24.963897705078125,2023-09-09 15:41:33.2970,1694292093.297194,-1.5233267545700073,0.3458789587020874,-0.647712230682373,-0.6192930936813354,0.760238528251648,-0.052551575005054474,
0,2023-09-09 15:41:22.1160,00:58,10,1,2023-09-09 15:41:33.9240,1694292093.9238858,-0.5234631896018982,0.46428191661834717,0.2509174346923828,0.4491119384765625,0.7381744384765625,-0.2126007080078125,142.3318634033203,17.572357177734375,-24.08868408203125,2023-09-09 15:41:33.3970,1694292093.396923,0.32720187306404114,0.2487964779138565,-0.5244424343109131,-0.6380615234375,0.7575835585594177,0.14553814381361008,
0,2023-09-09 15:41:22.1160,00:58,10,1,2023-09-09 15:41:34.0240,1694292094.024122,-0.2371760606765747,0.0892087072134018,-0.601470410823822,0.55096435546875,0.8145294189453125,-0.2685089111328125,142.12899780273438,18.081863403320312,-23.247772216796875,2023-09-09 15:41:33.4970,1694292093.497263,0.2572786509990692,0.21268868446350098,-0.22254393994808197,-0.6457365155220032,0.7467344403266907,0.011703193187713623,
0,2023-09-09 15:41:22.1160,00:58,10,1,2023-09-09 15:41:34.1230,1694292094.123317,0.028726452961564064,0.549920916557312,-0.889737069606781,0.4242706298828125,0.817047119140625,-0.254180908203125,141.09153747558594,20.60791015625,-22.609146118164062,2023-09-09 15:41:33.5970,1694292093.5965018,0.3941510319709778,0.0378340519964695,-0.1322649121284485,-0.7308958768844604,0.6934049725532532,-0.056915540946647525,
0,2023-09-09 15:41:22.1160,00:58,10,1,2023-09-09 15:41:34.2240,1694292094.224309,-0.15421539545059204,0.258482962846756,-0.19859245419502258,0.49029541015625,0.8811798095703125,-0.2555084228515625,141.83236694335938,22.012603759765625,-20.00531005859375,2023-09-09 15:41:33.6960,1694292093.69631,0.13139577209949493,-0.09979211539030075,-0.22077728807926178,-0.7064513564109802,0.6001891493797302,0.03810100723057985,
0,2023-09-09 15:41:22.1160,00:58,10,1,2023-09-09 15:41:34.3240,1694292094.323643,-0.7540460824966431,-1.1386915445327759,3.2435357570648193,0.6060638427734375,0.7707977294921875,-0.340301513671875,143.2396240234375,20.476486206054688,-19.227691650390625,2023-09-09 15:41:33.7960,1694292093.796277,0.23173081874847412,0.01950404793024063,0.004136808216571808,-0.6958311796188354,0.726699709892273,-0.04209920670837164,
0,2023-09-09 15:41:22.1160,00:58,10,1,2023-09-09 15:41:34.4240,1694292094.423686,-0.24121634662151337,-0.41614556312561035,1.0643291473388672,0.653167724609375,0.8363800048828125,-0.0945587158203125,146.5655975341797,11.3170166015625,-24.108612060546875,2023-09-09 15:41:33.8960,1694292093.896287,-0.019969258457422256,-0.09839475899934769,-0.007395511958748102,-0.706069827079773,0.719711184501648,-0.007690657861530781,
0,2023-09-09 15:41:22.1160,00:58,10,1,2023-09-09 15:41:34.5240,1694292094.523974,0.4996074140071869,-0.6059187054634094,0.8589240312576294,0.75244140625,0.8174591064453125,-0.3312835693359375,149.22357177734375,6.7014923095703125,-23.033294677734375,2023-09-09 15:41:33.9960,1694292093.995936,-0.15219752490520477,0.043829359114170074,0.04919968917965889,-0.7457426190376282,0.6241759061813354,-0.02375815622508526,
0,2023-09-09 15:41:22.1160,00:58,10,1,2023-09-09 15:41:34.6240,1694292094.6238198,-0.05933229997754097,-0.2380003184080124,-0.021195299923419952,0.8357086181640625,0.5689544677734375,-0.301483154296875,148.88438415527344,4.8177337646484375,-24.093475341796875,2023-09-09 15:41:34.0960,1694292094.095917,-0.2452200949192047,-0.02428058162331581,0.016548503190279007,-0.7359159588813782,0.5820768475532532,-0.009018185548484325,
0,2023-09-09 15:41:22.1160,00:58,10,1,2023-09-09 15:41:34.7240,1694292094.723723,-0.5341672301292419,-0.5943949222564697,0.049074336886405945,0.72149658203125,0.5871429443359375,-0.323974609375,148.48265075683594,5.89739990234375,-24.922607421875,2023-09-09 15:41:34.1960,1694292094.1956391,-0.006593133322894573,0.11827549338340759,-0.04770958051085472,-0.7293089032173157,0.6513669490814209,-0.061126929707825184,
0,2023-09-09 15:41:22.1160,00:58,10,1,2023-09-09 15:41:34.8240,1694292094.823703,-0.2368045598268509,0.08241605013608932,-0.09391690790653229,0.8890380859375,0.5619964599609375,-0.2330169677734375,146.6432342529297,8.7926025390625,-25.699752807617188,2023-09-09 15:41:34.2950,1694292094.295494,-0.02528413012623787,-0.02766359969973564,0.09291498363018036,-0.6903074383735657,0.7189939618110657,0.010299481451511383,
0,2023-09-09 15:41:22.1160,00:58,10,1,2023-09-09 15:41:34.9220,1694292094.9220052,0.08629920333623886,0.27396735548973083,-0.07061345130205154,0.7916259765625,0.51141357421875,-0.25213623046875,146.80886840820312,9.991867065429688,-24.378677368164062,2023-09-09 15:41:34.3950,1694292094.3952231,0.1680164784193039,0.00906086154282093,0.11016514152288437,-0.7495115995407104,0.6609495282173157,-0.00589011050760746,
0,2023-09-09 15:41:22.1160,00:58,10,1,2023-09-09 15:41:35.0230,1694292095.023436,0.11677055805921555,-0.06453344970941544,-0.07280150055885315,0.8099517822265625,0.657196044921875,-0.3093414306640625,146.97201538085938,9.6231689453125,-24.399032592773438,2023-09-09 15:41:34.4950,1694292094.495191,0.21318356692790985,-0.012109938077628613,0.07390360534191132,-0.7421874403953552,0.7566069960594177,-0.011307022534310818,
0,2023-09-09 15:41:22.1160,00:58,10,1,2023-09-09 15:41:35.1240,1694292095.1240978,0.18260815739631653,0.1920543909072876,-0.9362587928771973,0.644317626953125,0.6963043212890625,-0.2871246337890625,146.52743530273438,9.909271240234375,-24.862335205078125,2023-09-09 15:41:34.5950,1694292094.5952802,0.3081217408180237,-0.04934026300907135,0.14128148555755615,-0.7384337186813354,0.7731778621673584,-0.02841207943856716,
0,2023-09-09 15:41:22.1160,00:58,10,1,2023-09-09 15:41:35.2240,1694292095.223538,-0.02423849329352379,0.029680131003260612,-0.05031616613268852,0.7328338623046875,0.6168975830078125,-0.2712860107421875,145.8471221923828,11.4931640625,-24.2138671875,2023-09-09 15:41:34.6950,1694292094.6948981,0.25489068031311035,-0.04173360764980316,0.03871985152363777,-0.6846007704734802,0.7835386395454407,-0.06066915951669216,
0,2023-09-09 15:41:22.1160,00:58,10,1,2023-09-09 15:41:35.3240,1694292095.324436,-0.19132095575332642,-0.7272704243659973,0.6015961170196533,0.7636871337890625,0.6924591064453125,-0.2685546875,145.40554809570312,11.735488891601562,-24.837295532226562,2023-09-09 15:41:34.7950,1694292094.794654,0.1877969205379486,-0.002472090534865856,0.061886657029390335,-0.72528076171875,0.6170501112937927,-0.1137392669916153,
0,2023-09-09 15:41:22.1160,00:58,10,1,2023-09-09 15:41:35.4220,1694292095.421865,-0.06581736356019974,-0.4004819095134735,0.33756524324417114,0.67156982421875,0.6787261962890625,-0.28973388671875,145.18930053710938,9.309921264648438,-26.764328002929688,2023-09-09 15:41:34.8950,1694292094.894724,-0.04259407892823219,0.012261581607162952,-0.06254841387271881,-0.6914977431297302,0.5944212079048157,-0.0666048713028431,
0,2023-09-09 15:41:22.1160,00:58,10,1,2023-09-09 15:41:35.5240,1694292095.523778,-0.09030459821224213,0.09379865974187851,0.09178584814071655,0.7014923095703125,0.550872802734375,-0.3800506591796875,144.76466369628906,8.316131591796875,-28.196884155273438,2023-09-09 15:41:34.9940,1694292094.994389,0.12617436051368713,-0.027388758957386017,0.0734051987528801,-0.7190702557563782,0.8034513592720032,-0.0486300066113472,
0,2023-09-09 15:41:22.1160,00:58,10,1,2023-09-09 15:41:35.6250,1694292095.6245089,0.028973061591386795,-0.06096162274479866,0.1575520783662796,0.772491455078125,0.5761260986328125,-0.3703460693359375,144.89772033691406,8.29119873046875,-28.242843627929688,2023-09-09 15:41:35.0940,1694292095.094325,0.11186101287603378,-0.02443864196538925,-0.03328187018632889,-0.7120817303657532,0.6531827449798584,-0.07035849243402481,
0,2023-09-09 15:41:22.1160,00:58,10,1,2023-09-09 15:41:35.7240,1694292095.723783,0.17137575149536133,-0.2230631709098816,0.7919862866401672,0.8378448486328125,0.4953765869140625,-0.329193115234375,144.8418426513672,6.7731781005859375,-29.104629516601562,2023-09-09 15:41:35.1940,1694292095.19401,-0.11475289613008499,0.037248291075229645,-0.09096037596464157,-0.694961428642273,0.6876676082611084,-0.0263216532766819,
0,2023-09-09 15:41:22.1160,00:58,10,1,2023-09-09 15:41:35.8240,1694292095.823792,0.3374592661857605,-0.8947451710700989,2.5547468662261963,0.967437744140625,0.2576751708984375,-0.5105438232421875,146.0293731689453,2.4225921630859375,-29.56768798828125,2023-09-09 15:41:35.2940,1694292095.29407,-0.07505274564027786,0.02535248175263405,0.00981623213738203,-0.7655028104782104,0.6417235136032104,-0.0928041934967041,
0,2023-09-09 15:41:22.1160,00:58,10,1,2023-09-09 15:41:35.9240,1694292095.923775,-0.2699819505214691,0.025904035195708275,2.50249981880188,1.0280609130859375,0.0506439208984375,-0.408721923828125,146.1966552734375,-4.377593994140625,-30.688613891601562,2023-09-09 15:41:35.3940,1694292095.393692,-0.029134593904018402,-0.005589586682617664,0.06752564013004303,-0.6912383437156677,0.7076261639595032,-0.06390403211116791,
0,2023-09-09 15:41:22.1160,00:58,10,1,2023-09-09 15:41:36.0240,1694292096.023748,-0.4246058762073517,1.7135497331619263,2.1636734008789062,0.9093170166015625,0.0832672119140625,-0.4382476806640625,148.8452606201172,-10.034896850585938,-27.327789306640625,2023-09-09 15:41:35.4940,1694292095.4936051,0.03422766923904419,-0.007474438287317753,0.04828253388404846,-0.686843752861023,0.6738432049751282,-0.09460471197962761,
0,2023-09-09 15:41:22.1160,00:58,10,1,2023-09-09 15:41:36.1230,1694292096.1227841,0.8803731203079224,2.4331626892089844,0.5130164623260498,0.846527099609375,-0.2006072998046875,-0.4381561279296875,151.84596252441406,-16.346389770507812,-20.567764282226562,2023-09-09 15:41:35.5930,1694292095.593245,0.014367276802659035,-0.00574817880988121,0.04580079764127731,-0.721481204032898,0.7017821073532104,-0.06062338501214981,
0,2023-09-09 15:41:22.1160,00:58,10,1,2023-09-09 15:41:36.2240,1694292096.223566,1.737385869026184,-0.0432065911591053,-5.246438503265381,1.2182769775390625,0.255218505859375,0.1099700927734375,154.57388305664062,-11.891937255859375,-15.324874877929688,2023-09-09 15:41:35.6930,1694292095.693322,-0.03708026558160782,-0.05747329443693161,-0.015937501564621925,-0.7021941542625427,0.6969603300094604,-0.05717488378286362,
0,2023-09-09 15:41:22.1160,00:58,10,1,2023-09-09 15:41:36.3240,1694292096.323668,1.1133695840835571,2.229811191558838,-0.9966102838516235,1.1138458251953125,0.3145751953125,0.1005096435546875,156.5839385986328,-4.0764007568359375,-8.482498168945312,2023-09-09 15:41:35.7930,1694292095.793175,0.16248205304145813,0.044292349368333817,0.14039979875087738,-0.7024992108345032,0.6384732723236084,-0.13671892136335373,
0,2023-09-09 15:41:22.1160,00:58,10,1,2023-09-09 15:41:36.4240,1694292096.423744,3.3042774200439453,0.30766114592552185,2.139064073562622,0.95281982421875,0.2439422607421875,0.0247344970703125,156.9598388671875,-5.9932403564453125,-6.7173004150390625,2023-09-09 15:41:35.8930,1694292095.892946,0.2928996980190277,0.14796282351016998,0.3085993528366089,-0.5484617948532104,0.6213529706001282,-0.20069903135299683,
0,2023-09-09 15:41:22.1160,00:58,10,1,2023-09-09 15:41:36.5220,1694292096.522196,0.769670307636261,-1.9163355827331543,1.1204723119735718,0.6751251220703125,0.077911376953125,0.12200927734375,156.03700256347656,-14.2264404296875,-8.7481689453125,2023-09-09 15:41:35.9930,1694292095.99277,-0.2899729907512665,0.0018358388915657997,0.3954773545265198,-0.5505828261375427,0.7039182782173157,0.04693581163883209,
0,2023-09-09 15:41:22.1160,00:58,10,1,2023-09-09 15:41:36.6230,1694292096.6227021,-0.7437785267829895,-3.1208999156951904,1.158350944519043,0.7796783447265625,0.008697509765625,-0.5862884521484375,151.3057861328125,-20.06719970703125,-17.578277587890625,2023-09-09 15:41:36.0930,1694292096.09291,-1.420696496963501,0.11440339684486389,0.48471248149871826,-0.572097659111023,0.6865689754486084,0.23065165430307388,
0,2023-09-09 15:41:22.1160,00:58,10,1,2023-09-09 15:41:36.7240,1694292096.723552,-1.161784052848816,-1.6713535785675049,-0.12132909148931503,0.569915771484375,-0.250701904296875,-0.6403656005859375,139.591796875,-25.012908935546875,-30.221832275390625,2023-09-09 15:41:36.1930,1694292096.192713,-1.0513275861740112,-0.5162745714187622,0.5159065127372742,-0.72802734375,0.9412689208984375,0.37870766781270504,
0,2023-09-09 15:41:22.1160,00:58,10,1,2023-09-09 15:41:36.8240,1694292096.824249,0.4365893006324768,-3.2820992469787598,-0.06166869029402733,0.507293701171875,0.29803466796875,-0.537750244140625,127.75431823730469,-24.740066528320312,-38.316192626953125,2023-09-09 15:41:36.2920,1694292096.292138,-0.8400633335113525,-0.21724551916122437,0.6479641199111938,-0.4909209609031677,0.7041625380516052,-0.0261232852935791,
0,2023-09-09 15:41:22.1160,00:58,10,1,2023-09-09 15:41:36.9240,1694292096.923631,2.2833902835845947,-2.1742770671844482,-1.6091487407684326,0.2495574951171875,0.1203765869140625,-0.7097015380859375,119.57962036132812,-26.019210815429688,-40.17852783203125,2023-09-09 15:41:36.3920,1694292096.392158,-1.2246737480163574,0.1074817106127739,-0.09857475757598877,-0.5807036757469177,0.32025134563446045,0.1541287750005722,
0,2023-09-09 15:41:22.1160,00:58,10,1,2023-09-09 15:41:37.0240,1694292097.023559,0.002865294925868511,2.6276867389678955,-3.2387633323669434,0.37255859375,0.831573486328125,-0.45416259765625,131.88314819335938,-25.151382446289062,-36.12257385253906,2023-09-09 15:41:36.4920,1694292096.491972,1.9798545837402344,-0.1405860185623169,0.07767201215028763,-0.13436883687973022,1.105361819267273,0.3761136680841446,
0,2023-09-09 15:41:22.1160,00:58,10,1,2023-09-09 15:41:37.1240,1694292097.12367,-0.789919376373291,1.8410600423812866,-5.373317718505859,0.8082733154296875,0.0234527587890625,-0.2178955078125,149.5313720703125,-8.736190795898438,-25.764389038085938,2023-09-09 15:41:36.5920,1694292096.5919142,2.9375574588775635,-0.3803621232509613,0.5337141752243042,-0.4228668212890625,0.8318023085594177,-0.016311898827552795,
0,2023-09-09 15:41:22.1160,00:58,10,1,2023-09-09 15:41:37.2240,1694292097.223575,1.255935549736023,-3.426572799682617,1.3254417181015015,1.9415130615234375,0.49578857421875,0.2555389404296875,147.33367919921875,10.359664916992188,-25.387039184570312,2023-09-09 15:41:36.6920,1694292096.691752,0.45221465826034546,0.1682497262954712,0.6552848219871521,-0.4185332655906677,0.6391904354095459,0.010955661535263062,
0,2023-09-09 15:41:22.1160,00:58,10,1,2023-09-09 15:41:37.3230,1694292097.323381,-0.7980268597602844,-1.3945286273956299,0.06922487914562225,0.899658203125,0.5194549560546875,-1.253875732421875,143.75540161132812,3.646942138671875,-33.0157470703125,2023-09-09 15:41:36.7920,1694292096.7916389,2.084298849105835,-0.19155053794384003,-0.17304858565330505,-0.3673095703125,0.4182737469673157,-0.3656617999076843,
0,2023-09-09 15:41:22.1160,00:58,10,1,2023-09-09 15:41:37.4230,1694292097.423173,0.6473252177238464,3.8318612575531006,2.2285213470458984,0.408111572265625,0.6323089599609375,-0.48004150390625,144.96942138671875,-0.51275634765625,-31.63458251953125,2023-09-09 15:41:36.8920,1694292096.89151,2.66306471824646,-0.1223798468708992,-0.07598552107810974,-0.3765563666820526,0.8020933270454407,-0.5058900117874146,
0,2023-09-09 15:41:22.1160,00:58,10,1,2023-09-09 15:41:37.5240,1694292097.523683,-0.3021872937679291,-0.0474197119474411,2.691617965698242,0.9359130859375,0.2136077880859375,-0.249725341796875,151.0269012451172,-5.8299407958984375,-24.519027709960938,2023-09-09 15:41:36.9910,1694292096.991156,-1.428680658340454,0.34833386540412903,-0.3434208333492279,-0.5877227783203125,0.7626646161079407,-0.8740540146827698,
0,2023-09-09 15:41:22.1160,00:58,10,1,2023-09-09 15:41:37.6200,1694292097.6200519,-0.35412320494651794,0.9335282444953918,0.21753472089767456,0.6904296875,0.514923095703125,-0.1907806396484375,150.87893676757812,-11.60186767578125,-23.447891235351562,2023-09-09 15:41:37.0910,1694292097.091073,-2.9721972942352295,0.21908345818519592,-0.7750594615936279,-0.5120391547679901,0.9393156170845032,-0.3063203692436218,
0,2023-09-09 15:41:22.1160,00:58,10,1,2023-09-09 15:41:37.7240,1694292097.7238169,-0.5263658165931702,0.4972393214702606,0.819645345211029,1.0411224365234375,0.302276611328125,-0.2774810791015625,151.8655548095703,-13.419052124023438,-20.704910278320312,2023-09-09 15:41:37.1910,1694292097.190819,0.28364646434783936,0.5606275200843811,-1.2317818403244019,0.001297086477279663,2.1851958632469177,0.4539182484149933,
0,2023-09-09 15:41:22.1160,00:58,10,1,2023-09-09 15:41:37.8250,1694292097.8248038,0.20509696006774902,0.16731922328472137,-0.3668224811553955,0.850860595703125,0.248046875,-0.225677490234375,150.98971557617188,-14.084793090820312,-23.199813842773438,2023-09-09 15:41:37.2910,1694292097.2906241,2.1118316650390625,-0.5528128743171692,-0.2806337773799896,-0.2562407851219177,0.9601133465766907,-0.027191370725631714,
0,2023-09-09 15:41:22.1160,00:58,10,1,2023-09-09 15:41:37.9250,1694292097.924748,0.0232858806848526,-0.3029516041278839,-0.16956426203250885,0.861114501953125,0.2558441162109375,-0.390472412109375,151.2216796875,-12.296524047851562,-23.668533325195312,2023-09-09 15:41:37.3900,1694292097.39039,-1.9250160455703735,0.06744707375764847,0.5302633047103882,0.1889190673828125,0.5342864394187927,-0.3399355113506317,
0,2023-09-09 15:41:22.1160,00:58,10,1,2023-09-09 15:41:38.0250,1694292098.024869,-0.10612137615680695,-1.1349849700927734,-0.0003312972257845104,0.972015380859375,0.1677093505859375,-0.3769683837890625,148.97946166992188,-10.733139038085938,-27.372833251953125,2023-09-09 15:41:37.4900,1694292097.490446,-0.043796759098768234,0.5999586582183838,0.4200045168399811,-0.37582388520240784,0.8972318172454834,-0.42396557331085205,
0,2023-09-09 15:41:22.1160,00:58,10,1,2023-09-09 15:41:38.1230,1694292098.122958,-0.10612137615680695,-1.1349849700927734,-0.0003312972257845104,0.8303680419921875,0.3127593994140625,-0.4237213134765625,144.03146362304688,-12.276580810546875,-31.135025024414062,2023-09-09 15:41:37.5900,1694292097.590372,-0.626646101474762,0.4574473202228546,0.20538796484470367,-0.6207427382469177,0.6159208416938782,-0.5312349200248718,
0,2023-09-09 15:41:22.1160,00:58,10,1,2023-09-09 15:41:38.2210,1694292098.220776,0.39852020144462585,-1.4238660335540771,-0.5219436287879944,0.726043701171875,0.3147430419921875,-0.544921875,138.4514923095703,-11.572433471679688,-38.11433410644531,2023-09-09 15:41:37.6900,1694292097.6898742,-0.7741384506225586,0.5410622954368591,-0.15539319813251495,-0.5146178901195526,0.7723234295845032,-0.39599624276161194,
0,2023-09-09 15:41:22.1160,00:58,10,1,2023-09-09 15:41:38.3230,1694292098.322768,-0.2601327896118164,-0.8655878305435181,-0.25310176610946655,0.6754302978515625,0.2089691162109375,-0.80804443359375,135.87794494628906,-11.553497314453125,-39.45085144042969,2023-09-09 15:41:37.7900,1694292097.789792,0.25866562128067017,0.050025470554828644,-0.2873498201370239,-0.4537505507469177,0.845657229423523,-0.3132326006889343,
0,2023-09-09 15:41:22.1160,00:58,10,1,2023-09-09 15:41:38.4220,1694292098.4224439,-0.38489121198654175,1.3068650960922241,-0.5307496190071106,0.5953216552734375,0.283050537109375,-0.79888916015625,138.93084716796875,-11.028717041015625,-37.3956298828125,2023-09-09 15:41:37.8900,1694292097.889519,1.9112058877944946,-0.19082841277122498,-0.29164284467697144,-0.5144957602024078,0.6500852704048157,-0.47723400592803955,
0,2023-09-09 15:41:22.1160,00:58,10,1,2023-09-09 15:41:38.5230,1694292098.523038,0.39112967252731323,0.5804876089096069,0.018914036452770233,0.692626953125,0.359588623046875,-0.7369384765625,142.7652587890625,-11.182876586914062,-34.10169982910156,2023-09-09 15:41:37.9890,1694292097.989461,1.9022027254104614,-0.6371365785598755,-0.2230949103832245,-0.5403899252414703,0.8011777400970459,-0.4882203936576843,
0,2023-09-09 15:41:22.1160,00:58,10,1,2023-09-09 15:41:38.6230,1694292098.623127,0.6636443138122559,0.9217405319213867,0.7240666151046753,0.702484130859375,0.3253326416015625,-0.732025146484375,144.4637908935547,-13.367935180664062,-32.354339599609375,2023-09-09 15:41:38.0890,1694292098.089216,1.9188185930252075,-0.920269787311554,0.023173881694674492,-0.53594970703125,0.560348391532898,-0.5005800127983093,
0,2023-09-09 15:41:22.1160,00:58,10,1,2023-09-09 15:41:38.7220,1694292098.721929,0.11739959567785263,0.14459845423698425,0.02611229382455349,0.690460205078125,0.2522735595703125,-0.631927490234375,144.78472900390625,-14.316650390625,-32.20738220214844,2023-09-09 15:41:38.1890,1694292098.189316,1.7134168148040771,-1.226953148841858,0.35715925693511963,-0.6882323622703552,0.4558256268501282,-0.4783783555030823,
0,2023-09-09 15:41:22.1160,00:58,10,1,2023-09-09 15:41:38.8230,1694292098.823225,0.09810499846935272,0.05313991755247116,0.0018690064316615462,0.7135467529296875,0.268157958984375,-0.6717681884765625,145.004150390625,-14.6649169921875,-32.03025817871094,2023-09-09 15:41:38.2890,1694292098.2890348,0.4907923936843872,-0.582721471786499,0.2238088846206665,-0.5366210341453552,0.4994657635688782,-0.6340180039405823,
0,2023-09-09 15:41:22.1160,00:58,10,1,2023-09-09 15:41:38.9230,1694292098.923387,0.07394373416900635,0.05786942318081856,-0.010212955996394157,0.718292236328125,0.239593505859375,-0.6605987548828125,145.15313720703125,-14.666580200195312,-31.918533325195312,2023-09-09 15:41:38.3890,1694292098.388648,-0.4481908977031708,-0.3663116991519928,0.15597397089004517,-0.6472777128219604,0.5568082332611084,-0.5665588974952698,
0,2023-09-09 15:41:22.1160,00:58,10,1,2023-09-09 15:41:39.0230,1694292099.0234408,0.11110521852970123,0.12419784814119339,0.031193604692816734,0.729217529296875,0.218231201171875,-0.66644287109375,145.70660400390625,-15.32354736328125,-31.445831298828125,2023-09-09 15:41:38.4890,1694292098.488645,-0.4907209277153015,-0.348929226398468,0.22701865434646606,-0.6438903212547302,0.6577604413032532,-0.5304871797561646,
0,2023-09-09 15:41:22.1160,00:58,10,1,2023-09-09 15:41:39.1240,1694292099.1235518,0.07393360882997513,0.168318971991539,0.08119551837444305,0.7434234619140625,0.2003021240234375,-0.6402130126953125,146.11874389648438,-15.692337036132812,-30.829452514648438,2023-09-09 15:41:38.5880,1694292098.5882602,1.4748480319976807,-0.23234869539737701,0.15150754153728485,-0.6535949110984802,0.6392209529876709,-0.7041779160499573,
0,2023-09-09 15:41:22.1160,00:58,10,1,2023-09-09 15:41:39.2230,1694292099.223485,0.03142689913511276,0.10211491584777832,0.013735786080360413,0.754486083984375,0.1805572509765625,-0.62506103515625,146.6825714111328,-15.949752807617188,-30.247909545898438,2023-09-09 15:41:38.6880,1694292098.688222,3.167104482650757,0.8065671920776367,-0.46408891677856445,-0.5893553495407104,0.38436874747276306,-0.7787781357765198,
0,2023-09-09 15:41:22.1160,00:58,10,1,2023-09-09 15:41:39.3230,1694292099.323317,-0.02858210913836956,0.053711965680122375,0.03297818824648857,0.7453765869140625,0.1995849609375,-0.626922607421875,146.8838348388672,-16.116653442382812,-30.156402587890625,2023-09-09 15:41:38.7880,1694292098.787994,1.9380593299865723,1.0368300676345825,-1.0046343803405762,-0.443206787109375,0.11846910417079926,-0.7240447998046875,
0,2023-09-09 15:41:22.1160,00:58,10,1,2023-09-09 15:41:39.4230,1694292099.423466,-0.010610832832753658,-0.03256140649318695,0.016513196751475334,0.7534027099609375,0.1969451904296875,-0.620574951171875,146.58920288085938,-15.924087524414062,-30.030853271484375,2023-09-09 15:41:38.8880,1694292098.888015,0.7668195962905884,0.2717827558517456,-0.2512538433074951,-0.4136657118797302,0.20353686437010765,-0.7198944091796875,
0,2023-09-09 15:41:22.1160,00:58,10,1,2023-09-09 15:41:39.5230,1694292099.523411,-0.007614243775606155,-0.00239205127581954,0.0046213832683861256,0.74957275390625,0.1959228515625,-0.6270751953125,146.65975952148438,-16.277801513671875,-29.86260986328125,2023-09-09 15:41:38.9880,1694292098.9876351,-0.4107348620891571,0.32890304923057556,-0.5457637906074524,-0.3669738173484802,0.25973500683903694,-0.6617584824562073,
0,2023-09-09 15:41:22.1160,00:58,10,1,2023-09-09 15:41:39.6230,1694292099.6232328,-0.014098508283495903,0.003463441040366888,-0.012627910822629929,0.751800537109375,0.2041015625,-0.6250762939453125,146.77955627441406,-16.025177001953125,-29.503662109375,2023-09-09 15:41:39.0880,1694292099.087812,-1.0641820430755615,0.7731212377548218,-0.2940334677696228,-0.18339532613754272,0.0039366502314805984,-0.82244873046875,
0,2023-09-09 15:41:22.1160,00:58,10,1,2023-09-09 15:41:39.7230,1694292099.723479,0.024587901309132576,0.0062421830371022224,0.004254133440554142,0.7566375732421875,0.2028961181640625,-0.6251068115234375,146.69776916503906,-15.984893798828125,-29.661376953125,2023-09-09 15:41:39.1870,1694292099.1873121,-0.745419442653656,0.4725964367389679,0.12694168090820312,-0.3464354872703552,0.41236864030361176,-0.6236419677734375,
0,2023-09-09 15:41:22.1160,00:58,10,1,2023-09-09 15:41:39.8230,1694292099.823367,0.002207494108006358,-0.04616270214319229,-0.012896889820694923,0.738800048828125,0.1953125,-0.625,146.56483459472656,-16.026657104492188,-29.590866088867188,2023-09-09 15:41:39.2870,1694292099.287287,1.3501629829406738,-0.029788002371788025,0.4054553210735321,-0.3914183974266052,0.38793931901454926,-0.9236907958984375,
0,2023-09-09 15:41:22.1160,00:58,10,1,2023-09-09 15:41:39.9230,1694292099.923454,-0.10922342538833618,-0.10006188601255417,-0.14256860315799713,0.798370361328125,0.2210845947265625,-0.6499176025390625,146.64622497558594,-15.870681762695312,-29.812484741210938,2023-09-09 15:41:39.3870,1694292099.387044,1.1726740598678589,-0.058658525347709656,0.5783848166465759,-0.3320769965648651,0.07904041605070233,-0.9379730224609375,
0,2023-09-09 15:41:22.1160,00:58,10,1,2023-09-09 15:41:40.0230,1694292100.023435,0.11377636343240738,-0.026094451546669006,0.1436261385679245,0.637481689453125,0.1991119384765625,-0.5897064208984375,146.65875244140625,-16.060409545898438,-29.793075561523438,2023-09-09 15:41:39.4870,1694292099.486906,0.12175025790929794,0.05893401429057121,0.853338360786438,-0.4259490370750427,-0.029846301302313805,-1.0167388319969177,
0,2023-09-09 15:41:22.1160,00:58,10,1,2023-09-09 15:41:40.1230,1694292100.123095,0.31891459226608276,0.3297869563102722,0.7779341340065002,0.6792449951171875,0.1778411865234375,-0.747222900390625,147.0003662109375,-17.98388671875,-28.997039794921875,2023-09-09 15:41:39.5870,1694292099.586823,-1.3220032453536987,-0.5818937420845032,0.5739223957061768,-0.29534912109375,-0.07249462977051735,-0.804351806640625,
0,2023-09-09 15:41:22.1160,00:58,10,1,2023-09-09 15:41:40.2240,1694292100.224074,-0.7673057317733765,-0.2518668472766876,0.0021262678783386946,0.7767181396484375,0.204833984375,-0.7336578369140625,146.53872680664062,-17.504379272460938,-29.736312866210938,2023-09-09 15:41:39.6870,1694292099.686624,-1.8842861652374268,-0.8178774118423462,-0.3253656029701233,-0.3956756293773651,0.2658689618110657,-0.9480744004249573,
0,2023-09-09 15:41:22.1160,00:58,10,1,2023-09-09 15:41:40.3230,1694292100.3233628,-0.26817259192466736,0.012891829945147038,0.4505663812160492,0.684906005859375,-0.0204620361328125,-0.683624267578125,146.43768310546875,-18.33355712890625,-30.1224365234375,2023-09-09 15:41:39.7860,1694292099.786422,-6.491005897521973,-0.1109415739774704,-0.11497240513563156,-0.5286254286766052,1.007781744003296,-0.658432126045227,
0,2023-09-09 15:41:22.1160,00:58,10,1,2023-09-09 15:41:40.4240,1694292100.423511,-0.3646432161331177,-0.19918952882289886,0.5292694568634033,0.843048095703125,0.503204345703125,-0.6253814697265625,144.46714782714844,-20.331619262695312,-31.6578369140625,2023-09-09 15:41:39.8860,1694292099.886229,-3.5692250728607178,0.23805555701255798,-0.4542936682701111,-0.3800811171531677,1.0420225262641907,-0.3387453332543373,
0,2023-09-09 15:41:22.1160,00:58,10,1,2023-09-09 15:41:40.5230,1694292100.523241,-0.337948203086853,-0.20186015963554382,0.47996845841407776,0.688232421875,0.00836181640625,-0.6770172119140625,143.0967559814453,-21.0166015625,-33.18873596191406,2023-09-09 15:41:39.9860,1694292099.985972,-4.250300407409668,0.3511682450771332,0.11992638558149338,-0.4512482285499573,0.8469544053077698,0.2160794883966446,
0,2023-09-09 15:41:22.1160,00:58,10,1,2023-09-09 15:41:40.6200,1694292100.620105,-0.10967057198286057,0.3677268922328949,0.251648485660553,0.7485504150390625,0.08380126953125,-0.6640167236328125,143.19305419921875,-21.323043823242188,-31.9736328125,2023-09-09 15:41:40.0860,1694292100.0860581,-1.8692818880081177,0.0902547836303711,-0.4394502639770508,-0.697052001953125,1.037277340888977,0.4905698597431183,
0,2023-09-09 15:41:22.1160,00:58,10,1,2023-09-09 15:41:40.7220,1694292100.7217011,-0.5454830527305603,1.3228195905685425,0.00025273399660363793,0.7179718017578125,0.043487548828125,-0.6184539794921875,146.47286987304688,-19.156585693359375,-30.550582885742188,2023-09-09 15:41:40.1860,1694292100.1857119,-1.2132148742675781,0.21188373863697052,-0.3801102340221405,-0.6123504638671875,0.7605438828468323,0.49882495403289795,
0,2023-09-09 15:41:22.1160,00:58,10,1,2023-09-09 15:41:40.8230,1694292100.823431,-0.15344680845737457,0.623068630695343,0.22242161631584167,0.6549224853515625,0.257965087890625,-0.56591796875,149.46385192871094,-18.032119750976562,-26.9866943359375,2023-09-09 15:41:40.2860,1694292100.2856011,-0.16862045228481293,0.3654095232486725,-0.13981591165065765,-0.43890368938446045,0.6580808162689209,0.5834499001502991,
0,2023-09-09 15:41:22.1160,00:58,10,1,2023-09-09 15:41:40.9230,1694292100.923214,-0.33651143312454224,0.2828948199748993,0.25499260425567627,0.80224609375,0.3354949951171875,-0.507720947265625,149.8548126220703,-17.022323608398438,-26.903549194335938,2023-09-09 15:41:40.3850,1694292100.385479,-0.020247891545295715,0.4672005772590637,-0.08054399490356445,-0.560897707939148,0.7091673016548157,0.5203090310096741,
0,2023-09-09 15:41:22.1160,00:58,10,1,2023-09-09 15:41:41.0230,1694292101.023499,-1.0578975677490234,-3.128406047821045,-0.7261324524879456,0.828460693359375,0.23919677734375,-0.727691650390625,143.92103576660156,-13.457427978515625,-34.5294189453125,2023-09-09 15:41:40.4850,1694292100.4852371,-0.38637590408325195,0.45883601903915405,-0.1158839762210846,-0.6354065537452698,0.667617917060852,0.4435576796531677,
0,2023-09-09 15:41:22.1160,00:58,10,1,2023-09-09 15:41:41.1230,1694292101.122941,-0.6829642057418823,-0.9059546589851379,0.07168617099523544,0.6124420166015625,-0.0412445068359375,-0.76904296875,136.1024627685547,-10.150161743164062,-40.46440124511719,2023-09-09 15:41:40.5850,1694292100.585126,-0.38832545280456543,0.5862115621566772,-0.19571948051452637,-0.6304320693016052,0.525238037109375,0.4962460398674011,
0,2023-09-09 15:41:22.1160,00:58,10,1,2023-09-09 15:41:41.2230,1694292101.223208,-0.12588761746883392,-0.09253153204917908,-1.1606106758117676,0.6855010986328125,0.51177978515625,-0.6786956787109375,136.1024627685547,-10.150161743164062,-40.46440124511719,2023-09-09 15:41:40.6850,1694292100.6847348,-0.18317416310310364,0.40007147192955017,-0.19139491021633148,-0.65875244140625,0.6044922471046448,0.4516142010688782,
0,2023-09-09 15:41:22.1160,00:58,10,1,2023-09-09 15:41:41.3230,1694292101.3230891,-0.5276270508766174,0.6590940356254578,-0.9961032271385193,0.4547882080078125,0.6083831787109375,-0.7865142822265625,135.07546997070312,-6.7636566162109375,-41.62083435058594,2023-09-09 15:41:40.7850,1694292100.784754,0.20983131229877472,0.2898416519165039,-0.11877509951591492,-0.5908965468406677,0.5521087646484375,0.45837339758872986,
0,2023-09-09 15:41:22.1160,00:58,10,1,2023-09-09 15:41:41.4240,1694292101.4238439,-1.6623584032058716,-0.6149425506591797,-1.8507076501846313,0.5241851806640625,0.6327972412109375,-0.677490234375,138.693359375,-2.36785888671875,-38.19508361816406,2023-09-09 15:41:40.8850,1694292100.884557,-0.21589982509613037,0.3022523820400238,-0.13734130561351776,-0.7472838759422302,0.6510314345359802,0.4840543568134308,
0,2023-09-09 15:41:22.1160,00:58,10,1,2023-09-09 15:41:41.5240,1694292101.523787,-0.9084314107894897,-2.394631862640381,-0.6238856911659241,0.5471038818359375,0.8617095947265625,-0.855560302734375,135.43499755859375,7.5661468505859375,-37.653839111328125,2023-09-09 15:41:40.9850,1694292100.98451,0.49299538135528564,0.42648258805274963,-0.17350679636001587,-0.787002444267273,0.6394500732421875,0.4471737742424011,
0,2023-09-09 15:41:22.1160,00:58,10,1,2023-09-09 15:41:41.6230,1694292101.622953,-2.27500319480896,-1.131811499595642,-0.7201757431030273,0.4058990478515625,1.04949951171875,-0.5987548828125,127.28187561035156,13.831268310546875,-38.87705993652344,2023-09-09 15:41:41.0840,1694292101.084337,0.08161688596010208,0.14522749185562134,0.16902592778205872,-0.7590637803077698,0.7269593477249146,0.2576749622821808,
0,2023-09-09 15:41:22.1160,00:58,10,1,2023-09-09 15:41:41.7240,1694292101.723637,0.4651804566383362,-0.5513678193092346,0.781924843788147,-0.0223846435546875,0.687042236328125,-0.17901611328125,117.01580810546875,19.9298095703125,-38.28282165527344,2023-09-09 15:41:41.1840,1694292101.1841168,0.1496412754058838,-0.1616702675819397,0.09316321462392807,-0.7674100995063782,0.48120105266571045,0.46479758620262146,
0,2023-09-09 15:41:22.1160,00:58,10,1,2023-09-09 15:41:41.8230,1694292101.823148,0.5645006895065308,-0.31808555126190186,1.5069257020950317,0.215850830078125,0.8155059814453125,-0.7661285400390625,114.15573120117188,20.6290283203125,-38.280914306640625,2023-09-09 15:41:41.2840,1694292101.283941,-0.10166618227958679,-0.17391015589237213,-0.15678369998931885,-0.8123473525047302,0.6001738905906677,0.4254758954048157,
0,2023-09-09 15:41:22.1160,00:58,10,1,2023-09-09 15:41:41.9150,1694292101.914524,1.2005865573883057,0.939344048500061,0.37840670347213745,0.22894287109375,0.0689849853515625,-0.5778656005859375,116.38674926757812,17.021636962890625,-40.435546875,2023-09-09 15:41:41.3840,1694292101.3837972,0.04204511269927025,-0.2854277491569519,-0.24826498329639435,-0.8267059326171875,0.6240234971046448,0.5380704402923584,
0,2023-09-09 15:41:22.1160,00:58,10,1,2023-09-09 15:41:42.0230,1694292102.023221,1.5679832696914673,-2.474489212036133,2.115196943283081,0.3325653076171875,0.6472015380859375,-0.8655242919921875,116.3282470703125,13.726119995117188,-41.959320068359375,2023-09-09 15:41:41.4840,1694292101.4835892,0.34536072611808777,-0.007258855737745762,-0.20376498997211456,-0.7295073866844177,0.5095367729663849,0.4064023494720459,
0,2023-09-09 15:41:22.1160,00:58,10,1,2023-09-09 15:41:42.1230,1694292102.123184,2.035142421722412,0.1715797483921051,1.116045594215393,0.353179931640625,0.3270111083984375,-0.8727264404296875,113.88296508789062,5.0422821044921875,-45.623504638671875,2023-09-09 15:41:41.5830,1694292101.583494,1.161607027053833,0.00248458469286561,-0.10700469464063644,-0.7668455839157104,0.5088805556297302,0.4702298045158386,
0,2023-09-09 15:41:22.1160,00:58,10,1,2023-09-09 15:41:42.2230,1694292102.223333,0.8493971228599548,-0.9951194524765015,-0.03056110441684723,0.1224365234375,0.180206298828125,-0.8559417724609375,114.56768798828125,-5.319244384765625,-46.4378662109375,2023-09-09 15:41:41.6830,1694292101.683336,1.0965241193771362,0.40050241351127625,-0.28903698921203613,-0.7523804306983948,0.541961669921875,0.1856687068939209,
0,2023-09-09 15:41:22.1160,00:58,10,1,2023-09-09 15:41:42.3230,1694292102.323153,1.882511854171753,-0.3666973114013672,-0.6728782653808594,0.0222320556640625,0.1894073486328125,-1.225799560546875,107.82827758789062,-13.818374633789062,-45.726837158203125,2023-09-09 15:41:41.7830,1694292101.783093,0.45633071660995483,0.7095092535018921,-0.5340855717658997,-0.7239837050437927,0.4994811415672302,0.18460050225257874,
0,2023-09-09 15:41:22.1160,00:58,10,1,2023-09-09 15:41:42.4230,1694292102.42316,2.0943405628204346,0.04098658263683319,-0.8652578592300415,0.1638946533203125,0.05157470703125,-1.2705078125,100.19912719726562,-23.144088745117188,-42.310394287109375,2023-09-09 15:41:41.8830,1694292101.882868,0.8930862545967102,0.2168714553117752,-0.31910642981529236,-0.3405303955078125,0.4067688584327698,0.30323778092861176,
0,2023-09-09 15:41:22.1160,00:58,10,1,2023-09-09 15:41:42.5200,1694292102.520004,-1.4217983484268188,1.617552399635315,-1.2858593463897705,-0.0037078857421875,-0.1813507080078125,-0.8956451416015625,98.20684814453125,-34.403961181640625,-34.699188232421875,2023-09-09 15:41:41.9830,1694292101.982781,0.4811136722564697,-0.4947887361049652,0.40136995911598206,-0.6305999159812927,0.5394744873046875,0.2725674510002136,
0,2023-09-09 15:41:22.1160,00:58,10,1,2023-09-09 15:41:42.6230,1694292102.623178,-0.08722225576639175,0.7498449683189392,-1.0100754499435425,-0.28009033203125,-0.02532958984375,-0.917572021484375,99.05215454101562,-36.09733581542969,-33.293304443359375,2023-09-09 15:41:42.0830,1694292102.08257,1.3635056018829346,-0.7037283778190613,1.2199591398239136,-0.7482603788375854,0.634841799736023,0.14205913245677948,
0,2023-09-09 15:41:22.1160,00:58,10,1,2023-09-09 15:41:42.7230,1694292102.7231688,1.2773233652114868,-0.1773689240217209,-0.32672831416130066,-0.121551513671875,-0.2617340087890625,-0.75103759765625,101.10603332519531,-38.131103515625,-31.672286987304688,2023-09-09 15:41:42.1820,1694292102.1824598,2.4098238945007324,-0.5410577058792114,1.9399559497833252,-0.7455289959907532,0.8565519452095032,0.23635835945606232,
0,2023-09-09 15:41:22.1160,00:58,10,1,2023-09-09 15:41:42.8230,1694292102.823022,-0.17455929517745972,-0.06375447660684586,-0.2841808497905731,-0.1075286865234375,-0.2125091552734375,-0.800445556640625,101.46272277832031,-42.41807556152344,-26.5638427734375,2023-09-09 15:41:42.2820,1694292102.2823172,2.8130381107330322,-0.12191259860992432,2.2331173419952393,-0.6517638266086578,1.0444486141204834,0.08088661544024944,
0,2023-09-09 15:41:22.1160,00:58,10,1,2023-09-09 15:41:42.9210,1694292102.920955,0.10566464066505432,0.36626800894737244,-0.4535440504550934,-0.0641326904296875,-0.4586334228515625,-0.8430633544921875,103.49714660644531,-41.671966552734375,-28.391708374023438,2023-09-09 15:41:42.3820,1694292102.3822808,0.3344593048095703,0.4311712384223938,1.7891173362731934,-0.6072387844324112,0.8265380263328552,0.059341222047805786,
0,2023-09-09 15:41:22.1160,00:58,10,1,2023-09-09 15:41:43.0230,1694292103.023325,0.6001608967781067,-0.30486828088760376,-0.1057533249258995,-0.0927581787109375,-0.4394073486328125,-0.884063720703125,105.4248046875,-42.069091796875,-27.9322509765625,2023-09-09 15:41:42.4820,1694292102.481807,0.43228861689567566,0.250636488199234,1.5152828693389893,-0.3618622235953808,0.7088162302970886,-0.08711263537406921,
0,2023-09-09 15:41:22.1160,00:58,10,1,2023-09-09 15:41:43.1210,1694292103.121496,-0.7079797983169556,-0.09312887489795685,0.1251067817211151,-0.000457763671875,-0.503997802734375,-0.961456298828125,104.99923706054688,-43.06867980957031,-26.74383544921875,2023-09-09 15:41:42.5820,1694292102.581699,1.0688202381134033,-0.3073182702064514,1.1693528890609741,-0.11430364102125168,0.879867434501648,-0.1972810924053192,
0,2023-09-09 15:41:22.1160,00:58,10,1,2023-09-09 15:41:43.2230,1694292103.223075,-0.19144080579280853,-0.8704035878181458,-0.10794297605752945,-0.0801544189453125,-0.3401336669921875,-0.9841156005859375,104.70199584960938,-41.24310302734375,-28.488204956054688,2023-09-09 15:41:42.6820,1694292102.681689,2.006615400314331,-0.499220609664917,0.7394962310791016,0.19169610738754272,1.013809084892273,-0.2643129825592041,
0,2023-09-09 15:41:22.1160,00:58,10,1,2023-09-09 15:41:43.3230,1694292103.323046,-0.4521152675151825,0.6246276497840881,-0.08432500064373016,-0.0070037841796875,-0.4205322265625,-0.920928955078125,102.48953247070312,-40.66668701171875,-28.771621704101562,2023-09-09 15:41:42.7820,1694292102.781719,-1.1599031686782837,-0.19720935821533203,0.3894966244697571,0.021896332502365112,0.9181212782859802,-0.24978655576705933,
0,2023-09-09 15:41:22.1160,00:58,10,1,2023-09-09 15:41:43.4230,1694292103.423233,-0.13594798743724823,-0.1081877201795578,0.2512252926826477,-0.130706787109375,-0.3402862548828125,-0.8714752197265625,103.27508544921875,-40.58270263671875,-29.637237548828125,2023-09-09 15:41:42.8810,1694292102.881211,-0.6861640214920044,-0.22740159928798676,-0.060514822602272034,0.15162646770477295,0.7648770809173584,-0.3228303790092468,
0,2023-09-09 15:41:22.1160,00:58,10,1,2023-09-09 15:41:43.5230,1694292103.523059,-0.1410905420780182,-0.1682121753692627,-0.13070102035999298,-0.093231201171875,-0.3904266357421875,-0.9469146728515625,102.73062133789062,-40.19309997558594,-29.948760986328125,2023-09-09 15:41:42.9810,1694292102.981116,0.4900091588497162,-0.18079668283462524,-0.14327071607112885,0.21102896332740784,1.026458501815796,-0.3613740801811218,
0,2023-09-09 15:41:22.1160,00:58,10,1,2023-09-09 15:41:43.6230,1694292103.6231709,-0.23232725262641907,-0.40151387453079224,-0.040231574326753616,-0.1166229248046875,-0.2991790771484375,-0.871307373046875,102.21221923828125,-39.377044677734375,-30.974319458007812,2023-09-09 15:41:43.0810,1694292103.0808702,-0.09883378446102142,-0.10371828079223633,-0.10591579228639603,0.23284903168678284,1.0873869061470032,-0.3232728838920593,
0,2023-09-09 15:41:22.1160,00:58,10,1,2023-09-09 15:41:43.7450,1694292103.74529,-1.440987229347229,-0.2605285346508026,-0.22911708056926727,-0.126220703125,-0.0549468994140625,-1.0680084228515625,101.58580017089844,-38.47535705566406,-31.258255004882812,2023-09-09 15:41:43.1810,1694292103.180694,0.10959039628505707,-0.09213486313819885,0.07158143073320389,0.18495167791843414,1.0279844403266907,-0.27873244881629944,
0,2023-09-09 15:41:22.1160,00:58,10,1,2023-09-09 15:41:43.8450,1694292103.845343,0.8013268113136292,0.2142031043767929,-0.171290785074234,-0.1051788330078125,-0.2744598388671875,-1.07122802734375,100.94482421875,-34.468780517578125,-33.993682861328125,2023-09-09 15:41:43.2810,1694292103.2805629,-0.32837197184562683,-0.0006673997268080711,0.07642702013254166,0.25405876338481903,1.0158385634422302,-0.1997683048248291,
0,2023-09-09 15:41:22.1160,00:58,10,1,2023-09-09 15:41:43.9430,1694292103.943407,-0.3345702588558197,0.24236363172531128,-0.23289556801319122,-0.07891845703125,-0.259429931640625,-0.9356231689453125,101.6036376953125,-35.34040832519531,-34.23808288574219,2023-09-09 15:41:43.3810,1694292103.380518,0.16285215318202972,-0.11099617183208466,0.011565828695893288,0.23609915375709534,1.061385989189148,-0.18521137535572052,
0,2023-09-09 15:41:22.1160,00:58,10,1,2023-09-09 15:41:44.0440,1694292104.043762,0.32041874527931213,-0.038729019463062286,0.06469244509935379,-0.050994873046875,-0.22454833984375,-0.9554290771484375,103.51048278808594,-35.056304931640625,-34.58543395996094,2023-09-09 15:41:43.4800,1694292103.4803848,-0.1935264617204666,-0.12882444262504578,-0.058151066303253174,0.17472830414772034,1.014327883720398,-0.15249653160572052,
0,2023-09-09 15:41:22.1160,00:58,10,1,2023-09-09 15:41:44.1430,1694292104.143066,0.29782262444496155,-0.05290316045284271,0.23619335889816284,-0.069732666015625,-0.2703704833984375,-0.9609832763671875,103.7801513671875,-35.97369384765625,-34.13603210449219,2023-09-09 15:41:43.5800,1694292103.5798979,-0.33358636498451233,-0.20980611443519592,-0.059940844774246216,0.17016591131687164,0.9301297664642334,-0.18963642418384552,
0,2023-09-09 15:41:22.1160,00:58,10,1,2023-09-09 15:41:44.2440,1694292104.2435942,0.04099297150969505,0.48326706886291504,0.011664912104606628,-0.0447845458984375,-0.2699127197265625,-0.94091796875,103.15670776367188,-37.02894592285156,-33.76811218261719,2023-09-09 15:41:43.6800,1694292103.680138,-0.6115539073944092,-0.17210039496421814,-0.10873817652463913,0.11099234223365784,0.8532102108001709,-0.18356339633464813,
0,2023-09-09 15:41:22.1160,00:58,10,1,2023-09-09 15:41:44.3440,1694292104.3435159,0.05537803843617439,-0.8094302415847778,-0.26701465249061584,0.0311126708984375,-0.3087310791015625,-1.007354736328125,103.88212585449219,-37.05192565917969,-32.866943359375,2023-09-09 15:41:43.7800,1694292103.7796779,0.34849944710731506,0.08781159669160843,-0.09452182054519653,0.07489003241062164,0.8777463436126709,-0.21214313805103302,
0,2023-09-09 15:41:22.1160,00:58,10,1,2023-09-09 15:41:44.4430,1694292104.442933,-0.4738839566707611,-0.2926505208015442,0.1979125440120697,-0.1063232421875,-0.2915496826171875,-0.95306396484375,103.20257568359375,-38.076812744140625,-30.764724731445312,2023-09-09 15:41:43.8800,1694292103.879672,-0.04640526324510574,-0.10265448689460754,0.04447015002369881,0.16992178559303284,1.0281827449798584,-0.19140641391277313,
0,2023-09-09 15:41:22.1160,00:58,10,1,2023-09-09 15:41:44.5280,1694292104.527786,0.2962303161621094,-0.23270274698734283,0.07355064898729324,-0.1128692626953125,-0.3082122802734375,-0.9691314697265625,101.89938354492188,-36.738433837890625,-33.32154846191406,2023-09-09 15:41:43.9800,1694292103.9795399,-0.37577617168426514,0.07479340583086014,-0.054752741008996964,0.12171927094459534,0.9261778593063354,-0.1917879432439804,
0,2023-09-09 15:41:22.1160,00:58,10,1,2023-09-09 15:41:44.6150,1694292104.614681,0.2962303161621094,-0.23270274698734283,0.07355064898729324,-0.1128692626953125,-0.3082122802734375,-0.9691314697265625,101.36782836914062,-37.761993408203125,-31.34716796875,2023-09-09 15:41:44.0790,1694292104.079207,0.3317946493625641,0.14151184260845184,-0.1317286491394043,0.11688224971294403,0.8840941190719604,-0.1956178992986679,
0,2023-09-09 15:41:22.1160,00:58,10,1,2023-09-09 15:41:44.7160,1694292104.7159529,-0.06524930894374847,0.09806691110134125,0.03816869109869003,-0.1098480224609375,-0.3166046142578125,-0.9478302001953125,101.1395263671875,-37.449737548828125,-32.23887634277344,2023-09-09 15:41:44.1790,1694292104.179157,0.26999038457870483,0.05971018970012665,-0.1240512877702713,0.14190664887428284,0.940322756767273,-0.2071382999420166,
0,2023-09-09 15:41:22.1160,00:58,10,1,2023-09-09 15:41:44.9100,1694292104.9100919,0.1569741666316986,0.14090251922607422,0.07991746813058853,-0.1073760986328125,-0.3069305419921875,-0.937744140625,101.36405944824219,-37.57080078125,-32.3843994140625,2023-09-09 15:41:44.2790,1694292104.27913,0.2790646255016327,0.026096172630786896,-0.11912380903959274,0.11515802145004272,0.9658355116844177,-0.2899477183818817,
0,2023-09-09 15:41:22.1160,00:58,10,1,2023-09-09 15:41:44.9140,1694292104.9138389,0.1569741666316986,0.14090251922607422,0.07991746813058853,-0.1073760986328125,-0.3069305419921875,-0.937744140625,101.36405944824219,-37.57080078125,-32.3843994140625,2023-09-09 15:41:44.3790,1694292104.379333,0.051680292934179306,-0.014850063249468803,0.0970408171415329,0.18348686397075653,0.9952238202095032,-0.2635347247123718,
0,2023-09-09 15:41:22.1160,00:58,10,1,2023-09-09 15:42:20.8760,1694292140.8762279,-0.004181429278105497,-0.010820156894624233,-0.03151638060808182,0.8268280029296875,0.318603515625,-0.46624755859375,151.49806213378906,-9.207443237304688,-22.18023681640625,2023-09-09 15:41:44.4790,1694292104.478759,-0.022380884736776352,-0.037667758762836456,-0.014434712007641792,0.14031975716352463,0.9569700360298157,-0.2658693194389343,
0,2023-09-09 15:41:22.1160,00:58,10,1,,,,,,,,,,,,2023-09-09 15:41:44.5780,1694292104.578493,0.08336592465639114,-0.027140285819768906,-0.007626940030604601,0.13404838740825653,0.9416807293891907,-0.27546706795692444,
0,2023-09-09 15:41:22.1160,00:58,10,1,,,,,,,,,,,,2023-09-09 15:41:44.6790,1694292104.678561,0.09395697712898254,0.013150278478860855,-0.020656954497098923,0.11553948372602463,0.951827883720398,-0.2882539629936218,
0,2023-09-09 15:41:22.1160,00:58,10,1,,,,,,,,,,,,2023-09-09 15:41:44.7780,1694292104.778161,0.055733826011419296,0.0019375714473426342,-0.007162784691900015,0.11856070905923843,0.9574278593063354,-0.2955934703350067,
0,2023-09-09 15:41:22.1160,00:58,10,1,,,,,,,,,,,,2023-09-09 15:41:44.8780,1694292104.878083,-0.06720614433288574,-0.03868402540683746,-0.034128788858652115,0.13098138570785522,0.959335207939148,-0.30284133553504944,
0,2023-09-09 15:41:22.1160,00:58,10,1,,,,,,,,,,,,2023-09-09 15:41:44.9780,1694292104.977823,0.21273057162761688,-0.03993118181824684,-0.039504580199718475,0.10040275752544403,0.9643552899360657,-0.30311599373817444,
0,2023-09-09 15:41:22.1160,00:58,10,1,,,,,,,,,,,,2023-09-09 15:41:45.0780,1694292105.077714,-0.26833096146583557,0.024686027318239212,0.03477048501372337,0.11401359736919403,0.9427335858345032,-0.3356935381889343,
0,2023-09-09 15:41:22.1160,00:58,10,1,,,,,,,,,,,,2023-09-09 15:41:45.1780,1694292105.177549,-0.03118409775197506,0.004781427793204784,-0.014237306080758572,0.12738029658794403,0.9707793593406677,-0.2943575084209442,
0,2023-09-09 15:41:22.1160,00:58,10,1,,,,,,,,,,,,2023-09-09 15:41:45.2770,1694292105.277427,-0.02356492541730404,-0.007646478712558746,-0.0002516485983505845,0.11544794589281082,0.938003420829773,-0.2738496959209442,
0,2023-09-09 15:41:22.1160,00:58,10,1,,,,,,,,,,,,2023-09-09 15:41:45.3770,1694292105.377305,0.04652521386742592,-0.019070375710725784,-0.007749246433377266,0.10627738386392593,0.9534605145454407,-0.2819063365459442,
0,2023-09-09 15:41:22.1160,00:58,10,1,,,,,,,,,,,,2023-09-09 15:41:45.4770,1694292105.477052,-0.11596023291349411,0.03792526572942734,0.00412678811699152,0.12118522822856903,0.9384459257125854,-0.3058321177959442,
0,2023-09-09 15:41:22.1160,00:58,10,1,,,,,,,,,,,,2023-09-09 15:41:45.5770,1694292105.576941,0.05105258524417877,0.060291022062301636,-0.03646531328558922,0.06774895638227463,0.9237821698188782,-0.3030549883842468,
0,2023-09-09 15:41:22.1160,00:58,10,1,,,,,,,,,,,,2023-09-09 15:41:45.6770,1694292105.6766639,0.7240774631500244,-0.03005990758538246,0.1110772043466568,0.055099427700042725,0.9462431073188782,-0.2930910289287567,
0,2023-09-09 15:41:22.1160,00:58,10,1,,,,,,,,,,,,2023-09-09 15:41:45.7760,1694292105.776463,-0.003147401614114642,0.004338011611253023,-0.028740214183926582,0.11250297725200653,0.9628446698188782,-0.3137666583061218,
0,2023-09-09 15:41:22.1160,00:58,10,1,,,,,,,,,,,,2023-09-09 15:41:45.8760,1694292105.876419,0.1651732325553894,0.028801143169403076,0.03841868415474892,0.11753835529088974,0.9808042049407959,-0.32322707772254944,
0,2023-09-09 15:41:22.1160,00:58,10,1,,,,,,,,,,,,2023-09-09 15:41:45.9760,1694292105.976183,0.26673707365989685,0.05791548639535904,0.07711337506771088,0.11567680537700653,0.9444884657859802,-0.3295900821685791,
0,2023-09-09 15:41:22.1160,00:58,10,1,,,,,,,,,,,,2023-09-09 15:41:46.0760,1694292106.076168,0.17340439558029175,-0.02537527307868004,0.11760012060403824,0.13050834834575653,0.910568118095398,-0.3473970293998718,
0,2023-09-09 15:41:22.1160,00:58,10,1,,,,,,,,,,,,2023-09-09 15:41:46.1760,1694292106.1760778,0.1865682750940323,-0.031083762645721436,0.016504861414432526,0.15255729854106903,0.9131315350532532,-0.3671876788139343,
0,2023-09-09 15:41:22.1160,00:58,10,1,,,,,,,,,,,,2023-09-09 15:41:46.2760,1694292106.275737,0.0031808014027774334,0.0031558345071971416,-0.025777049362659454,0.14312735199928284,0.914871096611023,-0.3871004283428192,
0,2023-09-09 15:41:22.1160,00:58,10,1,,,,,,,,,,,,2023-09-09 15:41:46.3760,1694292106.375609,0.0755801647901535,0.026855837553739548,-0.02745603770017624,0.14076223969459534,0.9173734188079834,-0.3807832598686218,
0,2023-09-09 15:41:22.1160,00:58,10,1,,,,,,,,,,,,2023-09-09 15:41:46.4750,1694292106.475377,-0.03351076692342758,0.0307839997112751,-0.028188340365886688,0.12852467596530914,0.9145810604095459,-0.39410412311553955,
0,2023-09-09 15:41:22.1160,00:58,10,1,,,,,,,,,,,,2023-09-09 15:41:46.5750,1694292106.575284,-0.019543420523405075,-0.0009326506406068802,-0.0025814485270529985,0.13618461787700653,0.9254758954048157,-0.3749849498271942,
0,2023-09-09 15:41:22.1160,00:58,10,1,,,,,,,,,,,,2023-09-09 15:41:46.6750,1694292106.675067,-0.022503122687339783,0.005002203397452831,-0.015698783099651337,0.13127127289772034,0.9074857831001282,-0.37545791268348694,
0,2023-09-09 15:41:22.1160,00:58,10,1,,,,,,,,,,,,2023-09-09 15:41:46.7750,1694292106.774883,0.03319995477795601,0.009480309672653675,-0.019931010901927948,0.13110345602035522,0.9104002714157104,-0.3611146807670593,
0,2023-09-09 15:41:22.1160,00:58,10,1,,,,,,,,,,,,2023-09-09 15:41:46.8750,1694292106.874819,0.09501910954713821,0.03768318518996239,-0.017604205757379532,0.13912956416606903,0.9050138592720032,-0.36483779549598694,
0,2023-09-09 15:41:22.1160,00:58,10,1,,,,,,,,,,,,2023-09-09 15:41:46.9750,1694292106.9746342,-0.02966189756989479,0.036917392164468765,-0.022876299917697906,0.13903798162937164,0.8990781903266907,-0.3863222002983093,
0,2023-09-09 15:41:22.1160,00:58,10,1,,,,,,,,,,,,2023-09-09 15:41:47.0740,1694292107.074428,-0.051184702664613724,0.019216293469071388,-0.05101010203361511,0.13018789887428284,0.9057005643844604,-0.38157668709754944,
0,2023-09-09 15:41:22.1160,00:58,10,1,,,,,,,,,,,,2023-09-09 15:41:47.1740,1694292107.174267,0.05696100741624832,0.07866030931472778,-0.031247081235051155,0.12492360174655914,0.9095761775970459,-0.39689651131629944,
0,2023-09-09 15:41:22.1160,00:58,10,1,,,,,,,,,,,,2023-09-09 15:41:47.2740,1694292107.274189,0.08919031918048859,0.07069293409585953,-0.04223807901144028,0.13441458344459534,0.9221495389938354,-0.4017793536186218,
0,2023-09-09 15:41:22.1160,00:58,10,1,,,,,,,,,,,,2023-09-09 15:41:47.3740,1694292107.373817,-0.016414139419794083,0.1284952461719513,-0.057358577847480774,0.13694754242897034,0.9003293514251709,-0.3855133652687073,
0,2023-09-09 15:41:22.1160,00:58,10,1,,,,,,,,,,,,2023-09-09 15:41:47.4740,1694292107.473682,0.07083754241466522,0.1847933977842331,-0.09102219343185425,0.14300529658794403,0.9303892254829407,-0.35047924518585205,
0,2023-09-09 15:41:22.1160,00:58,10,1,,,,,,,,,,,,2023-09-09 15:41:47.5740,1694292107.573649,0.03558441624045372,0.28267911076545715,-0.045951761305332184,0.12413015961647034,0.9596098065376282,-0.41262832283973694,
0,2023-09-09 15:41:22.1160,00:58,10,1,,,,,,,,,,,,2023-09-09 15:41:47.6730,1694292107.6732569,-0.07551141828298569,0.23450130224227905,-0.03113236464560032,0.15455619990825653,0.9065549969673157,-0.3710634112358093,
0,2023-09-09 15:41:22.1160,00:58,10,1,,,,,,,,,,,,2023-09-09 15:41:47.7730,1694292107.773216,0.33927786350250244,0.4029596745967865,-0.09922290593385696,0.16616815328598022,0.9051054120063782,-0.3862611651420593,
0,2023-09-09 15:41:22.1160,00:58,10,1,,,,,,,,,,,,2023-09-09 15:41:47.8730,1694292107.872899,0.6456440687179565,0.42755186557769775,-0.21662455797195435,0.14590448141098022,0.910537600517273,-0.4359895586967468,
0,2023-09-09 15:41:22.1160,00:58,10,1,,,,,,,,,,,,2023-09-09 15:41:47.9730,1694292107.972845,0.40756064653396606,0.39997613430023193,-0.21347059309482574,0.14695733785629272,0.9425047636032104,-0.47557082772254944,
0,2023-09-09 15:41:22.1160,00:58,10,1,,,,,,,,,,,,2023-09-09 15:41:48.0730,1694292108.0726871,-0.15881089866161346,0.2618454396724701,-0.1695309579372406,0.13540641963481903,0.8859555721282959,-0.4475099444389343,
0,2023-09-09 15:41:22.1160,00:58,10,1,,,,,,,,,,,,2023-09-09 15:41:48.1730,1694292108.172543,-0.17636725306510925,0.018417345359921455,-0.08154277503490448,0.16836543381214142,0.8898161053657532,-0.3806154131889343,
0,2023-09-09 15:41:22.1160,00:58,10,1,,,,,,,,,,,,2023-09-09 15:41:48.2720,1694292108.272263,-0.02402924932539463,-0.21808786690235138,0.01812729239463806,0.17747490108013153,0.9376371502876282,-0.31031814217567444,
0,2023-09-09 15:41:22.1160,00:58,10,1,,,,,,,,,,,,2023-09-09 15:41:48.3720,1694292108.3722491,-0.02982442080974579,0.015303844586014748,0.042985305190086365,0.0954284518957138,0.9182891249656677,-0.4575502574443817,
0,2023-09-09 15:41:22.1160,00:58,10,1,,,,,,,,,,,,2023-09-09 15:41:48.4720,1694292108.472341,-0.19645242393016815,0.04295677691698074,0.055331919342279434,0.13917534053325653,0.8623197078704834,-0.43945327401161194,
0,2023-09-09 15:41:22.1160,00:58,10,1,,,,,,,,,,,,2023-09-09 15:41:48.5720,1694292108.571605,-0.32521066069602966,0.058251045644283295,0.045638810843229294,0.16452020406723022,0.8976895809173584,-0.39921584725379944,
0,2023-09-09 15:41:22.1160,00:58,10,1,,,,,,,,,,,,2023-09-09 15:41:48.6720,1694292108.671541,-0.41491156816482544,-0.10503707826137543,0.1100790873169899,0.1803741157054901,0.9195097088813782,-0.31994643807411194,
0,2023-09-09 15:41:22.1160,00:58,10,1,,,,,,,,,,,,2023-09-09 15:41:48.7710,1694292108.771455,0.03882135450839996,-0.025936536490917206,-0.06992027163505554,0.19519038498401642,0.944747805595398,-0.4346162676811218,
0,2023-09-09 15:41:22.1160,00:58,10,1,,,,,,,,,,,,2023-09-09 15:41:48.8710,1694292108.871408,0.020370109006762505,-0.02774202451109886,-0.036354824900627136,0.1328735053539276,0.8977201581001282,-0.4368745982646942,
0,2023-09-09 15:41:22.1160,00:58,10,1,,,,,,,,,,,,2023-09-09 15:41:48.9710,1694292108.971188,-0.11018956452608109,0.015382407233119011,-0.007381463423371315,0.12928767502307892,0.9073485136032104,-0.42305007576942444,
0,2023-09-09 15:41:22.1160,00:58,10,1,,,,,,,,,,,,2023-09-09 15:41:49.0710,1694292109.071156,0.03105124831199646,-0.09603133797645569,0.10562481731176376,0.15908809006214142,0.9335477948188782,-0.3485414385795593,
0,2023-09-09 15:41:22.1160,00:58,10,1,,,,,,,,,,,,2023-09-09 15:41:49.1710,1694292109.170899,0.010495573282241821,-0.06833618879318237,0.03495640680193901,0.17781059443950653,0.9429472088813782,-0.36352553963661194,
0,2023-09-09 15:41:22.1160,00:58,10,1,,,,,,,,,,,,2023-09-09 15:41:49.2710,1694292109.2707438,-0.32708489894866943,-0.02660432457923889,-0.0320444293320179,0.18058769404888153,0.9834744930267334,-0.35752883553504944,
0,2023-09-09 15:41:22.1160,00:58,10,1,,,,,,,,,,,,2023-09-09 15:41:49.3700,1694292109.370442,-0.2248477041721344,0.016249531880021095,-0.03932048752903938,0.20275874435901642,1.032455325126648,-0.3519746661186218,
0,2023-09-09 15:41:22.1160,00:58,10,1,,,,,,,,,,,,2023-09-09 15:41:49.4700,1694292109.470392,-0.2344963401556015,-0.018847733736038208,0.005214622709900141,0.20315544307231903,1.0066068768501282,-0.3869478106498718,
0,2023-09-09 15:41:22.1160,00:58,10,1,,,,,,,,,,,,2023-09-09 15:41:49.5700,1694292109.570229,0.012979370541870594,-0.06236831098794937,-0.06817591190338135,0.15135188400745392,0.9007720351219177,-0.3406221866607666,
0,2023-09-09 15:41:22.1160,00:58,10,1,,,,,,,,,,,,2023-09-09 15:41:49.6700,1694292109.670016,-0.030686482787132263,-0.07149682939052582,-0.012130677700042725,0.14564509689807892,1.0133361220359802,-0.3385927379131317,
0,2023-09-09 15:41:22.1160,00:58,10,1,,,,,,,,,,,,2023-09-09 15:41:49.7700,1694292109.769887,-0.12343239784240723,-0.021461626514792442,-0.07950226217508316,0.10607904195785522,0.8925932049751282,-0.3612825572490692,
0,2023-09-09 15:41:22.1160,00:58,10,1,,,,,,,,,,,,2023-09-09 15:41:49.8700,1694292109.8696961,-0.36767062544822693,0.031095854938030243,-0.015576808713376522,0.11199947446584702,1.045364260673523,-0.3189851641654968,
0,2023-09-09 15:41:22.1160,00:58,10,1,,,,,,,,,,,,2023-09-09 15:41:49.9690,1694292109.969451,-0.1813271939754486,0.04908058047294617,-0.017379602417349815,0.11010735481977463,0.885085940361023,-0.25849930942058563,
0,2023-09-09 15:41:22.1160,00:58,10,1,,,,,,,,,,,,2023-09-09 15:41:50.0690,1694292110.0693889,-0.25441357493400574,-0.0943659245967865,0.16475941240787506,0.14270015060901642,1.0042112469673157,-0.1710664927959442,
0,2023-09-09 15:41:22.1160,00:58,10,1,,,,,,,,,,,,2023-09-09 15:41:50.1690,1694292110.169121,-0.20281989872455597,-0.2402842491865158,0.004400627687573433,0.12471002340316772,0.984725832939148,-0.1603548377752304,
0,2023-09-09 15:41:22.1160,00:58,10,1,,,,,,,,,,,,2023-09-09 15:41:50.2690,1694292110.2689772,0.21655599772930145,-0.3987022638320923,0.018067337572574615,0.12562556564807892,0.9807127118110657,-0.1683504283428192,
0,2023-09-09 15:41:22.1160,00:58,10,1,,,,,,,,,,,,2023-09-09 15:41:50.3690,1694292110.368933,1.1523946523666382,-0.30956506729125977,-0.09085565060377121,0.13668816536664963,0.8726957440376282,-0.2404787242412567,
0,2023-09-09 15:41:22.1160,00:58,10,1,,,,,,,,,,,,2023-09-09 15:41:50.4690,1694292110.4688292,0.303876131772995,-0.08703331649303436,-0.04861375689506531,0.12744135409593582,1.0032652020454407,-0.2749330699443817,
0,2023-09-09 15:41:22.1160,00:58,10,1,,,,,,,,,,,,2023-09-09 15:41:50.5690,1694292110.568517,0.2160412073135376,-0.1096121221780777,-0.032452959567308426,0.09732048958539963,0.965682864189148,-0.24507156014442444,
0,2023-09-09 15:41:22.1160,00:58,10,1,,,,,,,,,,,,2023-09-09 15:41:50.6690,1694292110.668544,0.13675756752490997,-0.194074809551239,-0.044488318264484406,0.11036676168441772,0.9552305936813354,-0.28285232186317444,
0,2023-09-09 15:41:22.1160,00:58,10,1,,,,,,,,,,,,2023-09-09 15:41:50.7680,1694292110.7682328,0.093614362180233,-0.11246223747730255,-0.12109654396772385,0.06729121506214142,0.9725187420845032,-0.3146669268608093,
0,2023-09-09 15:41:22.1160,00:58,10,1,,,,,,,,,,,,2023-09-09 15:41:50.8680,1694292110.867906,-0.5092389583587646,0.08879803121089935,0.08248597383499146,0.10183711349964142,1.0369260907173157,-0.3426973521709442,
0,2023-09-09 15:41:22.1160,00:58,10,1,,,,,,,,,,,,2023-09-09 15:41:50.9680,1694292110.968179,0.568090558052063,-0.11536974459886551,0.24296920001506805,0.15196221321821213,1.0836638808250427,-0.14299029111862183,
0,2023-09-09 15:41:22.1160,00:58,10,1,,,,,,,,,,,,2023-09-09 15:41:51.0670,1694292111.067494,-0.09026286751031876,-0.35581937432289124,0.07083737850189209,0.15570061653852463,0.9896237850189209,-0.16436785459518433,
0,2023-09-09 15:41:22.1160,00:58,10,1,,,,,,,,,,,,2023-09-09 15:41:51.1680,1694292111.167789,-0.3111725449562073,-0.4220307469367981,0.017390629276633263,0.10597221553325653,0.9721067547798157,-0.21458452939987183,
0,2023-09-09 15:41:22.1160,00:58,10,1,,,,,,,,,,,,2023-09-09 15:41:51.2670,1694292111.267451,0.06071173772215843,-0.2351616621017456,0.010855663567781448,0.029388342052698135,0.9576261639595032,-0.3582002520561218,
0,2023-09-09 15:41:22.1160,00:58,10,1,,,,,,,,,,,,2023-09-09 15:41:51.3670,1694292111.367214,0.22328020632266998,-0.02250572107732296,-0.06935864686965942,0.031204167753458023,0.9469602108001709,-0.3149568736553192,
0,2023-09-09 15:41:22.1160,00:58,10,1,,,,,,,,,,,,2023-09-09 15:41:51.4670,1694292111.467011,-0.13480955362319946,0.019503116607666016,-0.07832494378089905,0.07905573025345802,0.9791256785392761,-0.2720033526420593,
0,2023-09-09 15:41:22.1160,00:58,10,1,,,,,,,,,,,,2023-09-09 15:41:51.5670,1694292111.5668669,-0.29442405700683594,-0.008175250142812729,0.0314861424267292,0.07603447884321213,0.9474486112594604,-0.24555984139442444,
0,2023-09-09 15:41:22.1160,00:58,10,1,,,,,,,,,,,,2023-09-09 15:41:51.6670,1694292111.666668,0.20931625366210938,0.08526907861232758,0.04007353633642197,0.09283442422747612,0.9724273681640625,-0.2888643145561218,
0,2023-09-09 15:41:22.1160,00:58,10,1,,,,,,,,,,,,2023-09-09 15:41:51.7670,1694292111.766582,0.16054418683052063,-0.036584388464689255,-0.020311642438173294,0.05989067628979683,0.9192043542861938,-0.27629125118255615,
0,2023-09-09 15:41:22.1160,00:58,10,1,,,,,,,,,,,,2023-09-09 15:41:51.8660,1694292111.8663101,-0.05713733285665512,-0.1029219999909401,-0.03883669152855873,0.034316956996917725,0.8998106122016907,-0.3021242618560791,
0,2023-09-09 15:41:22.1160,00:58,10,1,,,,,,,,,,,,2023-09-09 15:41:51.9660,1694292111.9662008,-0.06513328105211258,-0.07381750643253326,0.08642086386680603,0.05197135731577873,0.964553713798523,-0.34208694100379944,
0,2023-09-09 15:41:22.1160,00:58,10,1,,,,,,,,,,,,2023-09-09 15:41:52.0660,1694292112.06603,-0.016828324645757675,0.031046852469444275,-0.0473497211933136,0.028350766748189926,0.9067533612251282,-0.29144302010536194,
0,2023-09-09 15:41:22.1160,00:58,10,1,,,,,,,,,,,,2023-09-09 15:41:52.1660,1694292112.165944,-0.2394423484802246,0.07978963106870651,-0.04922105744481087,0.04568474367260933,0.9471282362937927,-0.2476198673248291,
0,2023-09-09 15:41:22.1160,00:58,10,1,,,,,,,,,,,,2023-09-09 15:41:52.2660,1694292112.265754,-0.436405748128891,0.3259594440460205,0.1065903753042221,0.06561273336410522,1.0073240995407104,-0.21183794736862183,
0,2023-09-09 15:41:22.1160,00:58,10,1,,,,,,,,,,,,2023-09-09 15:41:52.3660,1694292112.36555,-0.2079063355922699,0.23912589251995087,0.19541269540786743,0.13233941793441772,1.0005339980125427,-0.2640230506658554,
0,2023-09-09 15:41:22.1160,00:58,10,1,,,,,,,,,,,,2023-09-09 15:41:52.4650,1694292112.465446,0.25715115666389465,-0.2160353809595108,-0.13563556969165802,0.10769645869731903,0.9299467206001282,-0.15219134092330933,
0,2023-09-09 15:41:22.1160,00:58,10,1,,,,,,,,,,,,2023-09-09 15:41:52.5650,1694292112.56526,0.18026849627494812,-0.4818718433380127,-0.13879987597465515,0.07087700814008713,0.9997556805610657,-0.1901705116033554,
0,2023-09-09 15:41:22.1160,00:58,10,1,,,,,,,,,,,,2023-09-09 15:41:52.6650,1694292112.665138,0.14330795407295227,0.01525271125137806,0.041546531021595,0.00889579951763153,1.0340574979782104,-0.276138499379158,
0,2023-09-09 15:41:22.1160,00:58,10,1,,,,,,,,,,,,2023-09-09 15:41:52.7650,1694292112.764854,-0.31507205963134766,0.431308388710022,0.2309599667787552,0.04772941768169403,1.0334622263908386,-0.24049392342567444,
0,2023-09-09 15:41:22.1160,00:58,10,1,,,,,,,,,,,,2023-09-09 15:41:52.8650,1694292112.8646622,0.19672423601150513,0.29629117250442505,0.09170041233301163,0.11892692744731903,0.9521024823188782,-0.2644350081682205,
0,2023-09-09 15:41:22.1160,00:58,10,1,,,,,,,,,,,,2023-09-09 15:41:52.9650,1694292112.96457,-0.04054331034421921,0.05017061531543732,-0.03931679204106331,0.11375420540571213,1.009872317314148,-0.1511842906475067,
0,2023-09-09 15:41:22.1160,00:58,10,1,,,,,,,,,,,,2023-09-09 15:41:53.0640,1694292113.0643039,0.4202400743961334,-0.10184621810913086,-0.1036730483174324,0.07861322164535522,0.9577025175094604,-0.16981522738933563,
0,2023-09-09 15:41:22.1160,00:58,10,1,,,,,,,,,,,,2023-09-09 15:41:53.1640,1694292113.164309,0.4074987769126892,-0.05910847336053848,-0.007927510887384415,0.08911126106977463,0.9597776532173157,-0.22012345492839813,
0,2023-09-09 15:41:22.1160,00:58,10,1,,,,,,,,,,,,2023-09-09 15:41:53.2640,1694292113.264091,0.1981486976146698,-0.08416789025068283,0.0136637007817626,0.07545466721057892,0.9571990370750427,-0.2233736217021942,
0,2023-09-09 15:41:22.1160,00:58,10,1,,,,,,,,,,,,2023-09-09 15:41:53.3640,1694292113.364047,0.06478831171989441,-0.01727500557899475,-0.004877259489148855,0.08883660286664963,0.9752653241157532,-0.2697908282279968,
0,2023-09-09 15:41:22.1160,00:58,10,1,,,,,,,,,,,,2023-09-09 15:41:53.4640,1694292113.463618,0.20469453930854797,-0.03543457016348839,-0.021028932183980942,0.07879633456468582,0.9714506268501282,-0.3014985918998718,
0,2023-09-09 15:41:22.1160,00:58,10,1,,,,,,,,,,,,2023-09-09 15:41:53.5630,1694292113.563483,0.09588231146335602,0.0006659114733338356,-0.0009371129563078284,0.06376641988754272,0.9574279189109802,-0.328048974275589,
0,2023-09-09 15:41:22.1160,00:58,10,1,,,,,,,,,,,,2023-09-09 15:41:53.6630,1694292113.663315,0.06799036264419556,0.028146006166934967,-0.008456481620669365,0.05609123408794403,0.945449709892273,-0.3271028697490692,
0,2023-09-09 15:41:22.1160,00:58,10,1,,,,,,,,,,,,2023-09-09 15:41:53.7630,1694292113.7631931,0.07358159869909286,0.031059902161359787,-0.03414583206176758,0.050414979457855225,0.948715090751648,-0.3268282115459442,
0,2023-09-09 15:41:22.1160,00:58,10,1,,,,,,,,,,,,2023-09-09 15:41:53.8630,1694292113.863171,0.12979580461978912,-0.0657634437084198,-0.04680446907877922,0.08668510988354683,1.019027590751648,-0.2733461260795593,
0,2023-09-09 15:41:22.1160,00:58,10,1,,,,,,,,,,,,2023-09-09 15:41:53.9630,1694292113.962966,-0.11678295582532883,-0.06804071366786957,-0.02313489280641079,0.07188408076763153,0.9625394940376282,-0.25717177987098694,
0,2023-09-09 15:41:22.1160,00:58,10,1,,,,,,,,,,,,2023-09-09 15:41:54.0630,1694292114.0631151,-0.1326087862253189,0.0057746535167098045,0.01504458300769329,0.05609125271439552,0.9775999784469604,-0.2787935435771942,
0,2023-09-09 15:41:22.1160,00:58,10,1,,,,,,,,,,,,2023-09-09 15:41:54.1630,1694292114.162653,0.13382935523986816,-0.03521578758955002,-0.030101623386144638,0.05651850253343582,0.9484251141548157,-0.24951189756393433,
0,2023-09-09 15:41:22.1160,00:58,10,1,,,,,,,,,,,,2023-09-09 15:41:54.2630,1694292114.262522,0.14241738617420197,0.05004211515188217,-0.006901029031723738,0.020095765590667725,0.9600980877876282,-0.32867446541786194,
0,2023-09-09 15:41:22.1160,00:58,10,1,,,,,,,,,,,,2023-09-09 15:41:54.3620,1694292114.362361,0.3377648591995239,0.13880141079425812,0.08922494202852249,0.044540341943502426,1.033767580986023,-0.3298494219779968,
0,2023-09-09 15:41:22.1160,00:58,10,1,,,,,,,,,,,,2023-09-09 15:41:54.4620,1694292114.4624748,-0.07805586606264114,-0.009989794343709946,0.03874581679701805,0.07865899801254272,0.9656217694282532,-0.2879335284233093,
0,2023-09-09 15:41:22.1160,00:58,10,1,,,,,,,,,,,,2023-09-09 15:41:54.5620,1694292114.562004,0.23978282511234283,-0.12144149094820023,0.021850990131497383,0.08406060934066772,0.9607237577438354,-0.24295061826705933,
0,2023-09-09 15:41:22.1160,00:58,10,1,,,,,,,,,,,,2023-09-09 15:41:54.6620,1694292114.6619248,0.015561837702989578,-0.040126390755176544,-0.023978084325790405,0.06512442976236343,0.9559171199798584,-0.2347261607646942,
0,2023-09-09 15:41:22.1160,00:58,10,1,,,,,,,,,,,,2023-09-09 15:41:54.7620,1694292114.76162,0.16617710888385773,-0.03855792060494423,0.005492357071489096,0.06927483901381493,0.9805600643157959,-0.23561114072799683,
0,2023-09-09 15:41:22.1160,00:58,10,1,,,,,,,,,,,,2023-09-09 15:41:54.8610,1694292114.861462,0.024917656555771828,0.014426598325371742,-0.006188766565173864,0.05863947048783302,0.9753262996673584,-0.26687636971473694,
0,2023-09-09 15:41:22.1160,00:58,10,1,,,,,,,,,,,,2023-09-09 15:41:54.9610,1694292114.961251,-0.04474164918065071,0.015483208000659943,0.006159012671560049,0.058547936379909515,0.9611815810203552,-0.2588045299053192,
0,2023-09-09 15:41:22.1160,00:58,10,1,,,,,,,,,,,,2023-09-09 15:41:55.0620,1694292115.06151,0.011312497779726982,-0.0035167159512639046,0.004060608334839344,0.04234309121966362,0.940933108329773,-0.2855531573295593,
0,2023-09-09 15:41:22.1160,00:58,10,1,,,,,,,,,,,,2023-09-09 15:41:55.1610,1694292115.161062,0.011956850066781044,-0.005756966769695282,-0.006485575810074806,0.054443299770355225,0.938888430595398,-0.2908174395561218,
0,2023-09-09 15:41:22.1160,00:58,10,1,,,,,,,,,,,,2023-09-09 15:41:55.2610,1694292115.2608662,-0.03639889881014824,0.028198737651109695,-0.034848276525735855,0.02919001132249832,0.9046171307563782,-0.30665603280067444,
0,2023-09-09 15:41:22.1160,00:58,10,1,,,,,,,,,,,,2023-09-09 15:41:55.3610,1694292115.360673,0.0015578046441078186,0.009862340055406094,0.05035063996911049,0.04666129872202873,0.9474180340766907,-0.2418825328350067,
0,2023-09-09 15:41:22.1160,00:58,10,1,,,,,,,,,,,,2023-09-09 15:41:55.4610,1694292115.460658,-0.09384488314390182,-0.030830759555101395,0.013907680287957191,0.08839408308267593,0.9952542781829834,-0.24560564756393433,
0,2023-09-09 15:41:22.1160,00:58,10,1,,,,,,,,,,,,2023-09-09 15:41:55.5600,1694292115.560433,-0.1599712371826172,-0.0034434786066412926,0.02974073961377144,0.08775321766734123,1.0089414715766907,-0.24163836240768433,
0,2023-09-09 15:41:22.1160,00:58,10,1,,,,,,,,,,,,2023-09-09 15:41:55.6600,1694292115.660221,-0.14900746941566467,0.0064074210822582245,0.009774853475391865,0.07833855599164963,0.9630429744720459,-0.22619646787643433,
