SessionID,SessionDate,SessionDuration,SessionFrequency,RecordID,Timestamp,timeIntervalSince1970,GyroX,GyroY,GyroZ,AccX,AccY,AccZ,MagX,MagY,MagZ,WatchTimestamp,WatchtImeIntervalSince1970,WatchGyroX,WatchGyroY,WatchGyroZ,WatchAccX,WatchAccY,WatchAccZ
0,2023-09-09 21:08:47.2620,02:55,10,1,2023-09-09 21:08:47.3660,1694311727.365942,-0.0009960222523659468,-0.004560130648314953,-0.004708468914031982,-0.162506103515625,0.0238037109375,-0.9898529052734375,96.50752258300781,-24.268569946289062,-40.746063232421875,2023-09-09 21:08:47.0840,1694311727.083936,0.022078122943639755,-0.0069196224212646484,-0.00605382677167654,-0.041412353515625,-0.40423583984375,-0.90618896484375,
0,2023-09-09 21:08:47.2620,02:55,10,1,2023-09-09 21:08:47.4650,1694311727.4653192,-0.00037923414492979646,-0.003632285399362445,-0.004798217210918665,-0.1644287109375,0.02288818359375,-0.9883880615234375,96.25833129882812,-23.902847290039062,-41.436004638671875,2023-09-09 21:08:47.2480,1694311727.2479491,-0.022345535457134247,0.019467510282993317,-0.018080396577715874,-0.0430755615234375,-0.4263916015625,-0.8975677490234375,
0,2023-09-09 21:08:47.2620,02:55,10,1,2023-09-09 21:08:47.5660,1694311727.565733,0.0003398193512111902,-0.005598230753093958,-0.002900981344282627,-0.16424560546875,0.022491455078125,-0.98809814453125,96.46075439453125,-24.099578857421875,-41.65777587890625,2023-09-09 21:08:47.2760,1694311727.276329,-0.02575637772679329,0.009413810446858406,-0.005907951854169369,-0.0554504431784153,-0.4278564453125,-0.894195556640625,
0,2023-09-09 21:08:47.2620,02:55,10,1,2023-09-09 21:08:47.6660,1694311727.66574,0.0014026869321241975,-0.0029952572658658028,-0.0005912217311561108,-0.1604461669921875,0.0225677490234375,-0.9893798828125,96.44783020019531,-24.00811767578125,-41.119903564453125,2023-09-09 21:08:47.3840,1694311727.384062,-0.014057043939828873,0.0159770380705595,-0.003926060628145933,-0.0530395470559597,-0.419769287109375,-0.8954924941062927,
0,2023-09-09 21:08:47.2620,02:55,10,1,2023-09-09 21:08:47.7650,1694311727.765016,0.0007869640830904245,-0.00387356779538095,-0.0004575310740619898,-0.15789794921875,0.0240631103515625,-0.990478515625,96.30096435546875,-24.030441284179688,-41.35578918457031,2023-09-09 21:08:47.4760,1694311727.476313,0.007900851778686047,0.002536064013838768,0.008081133477389812,-0.0441894568502903,-0.411102294921875,-0.9045714735984802,
0,2023-09-09 21:08:47.2620,02:55,10,1,2023-09-09 21:08:47.8650,1694311727.865197,0.0014365090755745769,-0.005790777504444122,-0.006396646611392498,-0.157806396484375,0.0269927978515625,-0.989410400390625,96.47163391113281,-24.213043212890625,-41.04512023925781,2023-09-09 21:08:47.5760,1694311727.5760322,0.00787774845957756,-0.022243451327085495,0.02997867576777935,-0.0433959923684597,-0.4201507568359375,-0.910980224609375,
0,2023-09-09 21:08:47.2620,02:55,10,1,2023-09-09 21:08:47.9660,1694311727.9656072,-0.0006593986763618886,-0.007336209993809462,-0.0008748483960516751,-0.159423828125,0.0268707275390625,-0.989593505859375,96.32646179199219,-23.979141235351562,-41.55375671386719,2023-09-09 21:08:47.6760,1694311727.6759849,3.687036223709583e-05,-0.00020819064229726791,0.009541977196931839,-0.0431976355612278,-0.4233398735523224,-0.9073944091796875,
0,2023-09-09 21:08:47.2620,02:55,10,1,2023-09-09 21:08:48.0650,1694311728.065127,-0.0019651465117931366,-0.0032682311721146107,-0.002544117858633399,-0.1597900390625,0.0279388427734375,-0.988739013671875,96.3397216796875,-24.061187744140625,-40.79450988769531,2023-09-09 21:08:47.7760,1694311727.775918,0.03319995105266571,0.00242660753428936,-0.006198802497237921,-0.0460052452981472,-0.4092559814453125,-0.898590087890625,
0,2023-09-09 21:08:47.2620,02:55,10,1,2023-09-09 21:08:48.1660,1694311728.165882,-0.0009949569357559085,-0.004159324802458286,-0.0018375811632722616,-0.1585235595703125,0.02911376953125,-0.9866790771484375,96.43360900878906,-24.030258178710938,-40.724761962890625,2023-09-09 21:08:47.8760,1694311727.875646,0.04114788770675659,-0.009401821531355381,0.005973574705421925,-0.0377807579934597,-0.3934784233570099,-0.897796630859375,
0,2023-09-09 21:08:47.2620,02:55,10,1,2023-09-09 21:08:48.2690,1694311728.269474,0.0014282532501965761,-0.002097239252179861,-0.004266117699444294,-0.1586761474609375,0.030487060546875,-0.987152099609375,96.35899353027344,-23.743865966796875,-41.612640380859375,2023-09-09 21:08:47.9760,1694311727.975539,0.02434094436466694,-0.02278340607881546,0.013241740874946117,-0.0476684607565403,-0.4106750786304474,-0.9074401259422302,
0,2023-09-09 21:08:47.2620,02:55,10,1,2023-09-09 21:08:48.3690,1694311728.368948,0.00019387812062632293,-0.002912166528403759,-0.0033566481433808804,-0.157958984375,0.03076171875,-0.9864501953125,96.37252807617188,-23.951263427734375,-41.66426086425781,2023-09-09 21:08:48.0750,1694311728.075419,-0.0053030336275696754,0.005778862163424492,0.01114653144031763,-0.050445556640625,-0.4181976616382599,-0.901885986328125,
0,2023-09-09 21:08:47.2620,02:55,10,1,2023-09-09 21:08:48.4690,1694311728.4689279,-0.0017749968683347106,-0.0005736448802053928,-0.004811266902834177,-0.1574554443359375,0.0307159423828125,-0.986785888671875,96.31805419921875,-23.893341064453125,-41.67304992675781,2023-09-09 21:08:48.1750,1694311728.175483,-0.07525941729545593,0.00410972535610199,0.017629697918891907,-0.0603332556784153,-0.4489136040210724,-0.8987579345703125,
0,2023-09-09 21:08:47.2620,02:55,10,1,2023-09-09 21:08:48.5700,1694311728.570091,-0.0033361418172717094,-0.0028783443849533796,-0.0036783581599593163,-0.1562042236328125,0.030792236328125,-0.9875030517578125,96.27558898925781,-23.979110717773438,-41.70408630371094,2023-09-09 21:08:48.2750,1694311728.2751489,0.037847764790058136,0.036484308540821075,-0.012016776949167252,-0.0446929931640625,-0.43145751953125,-0.9049224257469177,
0,2023-09-09 21:08:47.2620,02:55,10,1,2023-09-09 21:08:48.6680,1694311728.668081,-0.0032434638123959303,-0.0026104305870831013,7.483482477255166e-05,-0.15740966796875,0.03228759765625,-0.985382080078125,96.22476196289062,-24.078475952148438,-42.082305908203125,2023-09-09 21:08:48.3750,1694311728.3749661,0.02872723899781704,0.0186427291482687,-0.004011048935353756,-0.0510559156537056,-0.425750732421875,-0.9035033583641052,
0,2023-09-09 21:08:47.2620,02:55,10,1,2023-09-09 21:08:48.7690,1694311728.769474,-0.0011627360945567489,-0.0026229473296552896,-0.0025867284275591373,-0.1571502685546875,0.0330657958984375,-0.98486328125,96.13262939453125,-23.779403686523438,-42.28082275390625,2023-09-09 21:08:48.4750,1694311728.474834,0.014669875614345074,-0.0026321997866034508,-0.002941989339888096,-0.0436248742043972,-0.4117889702320099,-0.894256591796875,
0,2023-09-09 21:08:47.2620,02:55,10,1,2023-09-09 21:08:48.8690,1694311728.8692908,0.003090864745900035,-0.006351106334477663,-0.004086087923496962,-0.1564178466796875,0.0326080322265625,-0.98785400390625,96.2705078125,-24.032485961914062,-42.58106994628906,2023-09-09 21:08:48.5750,1694311728.5747051,-0.01899600960314274,0.0012979605235159397,-0.0059807561337947845,-0.0514678917825222,-0.415435791015625,-0.8963470458984375,
0,2023-09-09 21:08:47.2620,02:55,10,1,2023-09-09 21:08:48.9690,1694311728.969187,-0.0011374361347407103,-0.002499110298231244,-0.0033276197500526905,-0.1582183837890625,0.030975341796875,-0.9871368408203125,96.20771789550781,-23.929855346679688,-42.20545959472656,2023-09-09 21:08:48.6740,1694311728.6744928,-0.04911716282367706,0.00758674880489707,-0.003578718053176999,-0.0545959547162056,-0.4240570068359375,-0.906646728515625,
0,2023-09-09 21:08:47.2620,02:55,10,1,2023-09-09 21:08:49.0690,1694311729.068896,-0.000972852751147002,-0.003988616168498993,-0.003011236200109124,-0.161224365234375,0.0254364013671875,-0.987518310546875,96.20263671875,-23.989990234375,-42.45460510253906,2023-09-09 21:08:48.7740,1694311728.7743158,-0.057798732072114944,0.005293368361890316,0.02814042940735817,-0.0518493726849556,-0.4287720024585724,-0.9046173095703125,
0,2023-09-09 21:08:47.2620,02:55,10,1,2023-09-09 21:08:49.1690,1694311729.169308,-0.0012740562669932842,-0.003245328087359667,-0.002695119008421898,-0.1594390869140625,0.02630615234375,-0.9881591796875,96.20680236816406,-23.849807739257812,-42.33119201660156,2023-09-09 21:08:48.8740,1694311728.874134,-0.08376854658126831,0.008699283935129642,-0.007507180329412222,-0.0419921875,-0.4297943413257599,-0.899505615234375,
0,2023-09-09 21:08:47.2620,02:55,10,1,2023-09-09 21:08:49.2690,1694311729.269258,-0.0004165183927398175,-0.0008862999966368079,-0.0016335829859599471,-0.15704345703125,0.02679443359375,-0.9918212890625,96.25196838378906,-23.863967895507812,-42.275054931640625,2023-09-09 21:08:48.9740,1694311728.9739819,0.04227600246667862,0.015868380665779114,-0.013162302784621716,-0.0542449951171875,-0.4144439697265625,-0.8983306288719177,
0,2023-09-09 21:08:47.2620,02:55,10,1,2023-09-09 21:08:49.3690,1694311729.3691149,-0.004024568945169449,-0.0046639940701425076,-0.0021936458069831133,-0.159820556640625,0.0299224853515625,-0.98748779296875,96.17817687988281,-23.834930419921875,-42.30645751953125,2023-09-09 21:08:49.0740,1694311729.0739079,0.022246502339839935,0.009691445156931877,-0.00249294750392437,-0.0444030687212944,-0.39959716796875,-0.908111572265625,
0,2023-09-09 21:08:47.2620,02:55,10,1,2023-09-09 21:08:49.4690,1694311729.4693918,-0.004428037907928228,-0.0033188313245773315,-0.0007145261042751372,-0.1680755615234375,0.027069091796875,-0.98406982421875,96.21282958984375,-23.970901489257812,-42.24153137207031,2023-09-09 21:08:49.1740,1694311729.173954,-0.010881956666707993,0.030695397406816483,0.013273531571030617,-0.0517272874712944,-0.4114532470703125,-0.9018859267234802,
0,2023-09-09 21:08:47.2620,02:55,10,1,2023-09-09 21:08:49.5710,1694311729.570564,-0.003715375903993845,-0.004021639470010996,-0.0013137373607605696,-0.1533050537109375,0.0243377685546875,-0.99267578125,96.32801818847656,-23.870223999023438,-42.377288818359375,2023-09-09 21:08:49.2730,1694311729.273487,0.022706829011440277,0.02137313410639763,-0.0004897841718047857,-0.0444488599896431,-0.4048767387866974,-0.902923583984375,
0,2023-09-09 21:08:47.2620,02:55,10,1,2023-09-09 21:08:49.6690,1694311729.669169,-0.0021872541401535273,-0.005458415020257235,-0.0020386497490108013,-0.1589813232421875,0.020599365234375,-0.990325927734375,96.25027465820312,-23.785476684570312,-41.71452331542969,2023-09-09 21:08:49.3730,1694311729.373239,-0.006884485483169556,0.0033997264690697193,0.013026757165789604,-0.0318756103515625,-0.4091491997241974,-0.909942626953125,
0,2023-09-09 21:08:47.2620,02:55,10,1,2023-09-09 21:08:49.7700,1694311729.769566,-0.00011345066013745964,-0.000669252360239625,-0.0018540926976129413,-0.1597442626953125,0.02142333984375,-0.9909210205078125,96.30604553222656,-23.840087890625,-41.88331604003906,2023-09-09 21:08:49.4730,1694311729.473198,0.01380741037428379,-0.002514488063752651,-0.0006505392957478762,-0.043838489800691605,-0.4143982231616974,-0.9105224013328552,
0,2023-09-09 21:08:47.2620,02:55,10,1,2023-09-09 21:08:49.8690,1694311729.869158,0.0003201119543518871,-0.005614476278424263,-0.0039007319137454033,-0.15771484375,0.0248260498046875,-0.990325927734375,96.4326171875,-23.86383056640625,-41.70088195800781,2023-09-09 21:08:49.5730,1694311729.572873,-0.0018797400407493114,-0.008038550615310669,-0.008359958417713642,-0.044097900390625,-0.421600341796875,-0.8984375,
0,2023-09-09 21:08:47.2620,02:55,10,1,2023-09-09 21:08:49.9700,1694311729.969688,0.00028522455249913037,-0.002633600030094385,-0.0027454528026282787,-0.1585235595703125,0.0286865234375,-0.9887237548828125,96.27093505859375,-23.692169189453125,-41.60310363769531,2023-09-09 21:08:49.6730,1694311729.6727529,0.07275281846523285,-0.020296813920140266,0.02651500143110752,-0.0313568077981472,-0.4129180908203125,-0.9060515761375427,
0,2023-09-09 21:08:47.2620,02:55,10,1,2023-09-09 21:08:50.0700,1694311730.070168,-0.0015720640076324344,-0.005868541542440653,-0.004098072182387114,-0.1598358154296875,0.02545166015625,-0.9889068603515625,96.2542724609375,-23.89007568359375,-41.60240173339844,2023-09-09 21:08:49.7730,1694311729.772635,-0.4164862036705017,-0.006858103908598423,-0.31249764561653137,-0.1287078857421875,-0.4683380424976349,-0.8027496337890625,
0,2023-09-09 21:08:47.2620,02:55,10,1,2023-09-09 21:08:50.1690,1694311730.169366,-0.002412557601928711,-0.003817375050857663,-0.001228516222909093,-0.15594482421875,0.0255279541015625,-0.9889068603515625,96.18052673339844,-23.724822998046875,-41.72357177734375,2023-09-09 21:08:49.8720,1694311729.8724852,-0.8661084771156311,-0.24432098865509033,-0.6467514038085938,-0.1439514197409153,-0.4779815971851349,-0.808837890625,
0,2023-09-09 21:08:47.2620,02:55,10,1,2023-09-09 21:08:50.2690,1694311730.26895,-0.0022032330743968487,-0.0030309436842799187,-0.0030312100425362587,-0.1591339111328125,0.02935791015625,-0.98724365234375,96.32455444335938,-24.00128173828125,-41.91929626464844,2023-09-09 21:08:49.9720,1694311729.97244,-0.8820197582244873,-0.30028200149536133,-1.1442246437072754,-0.1674041636288166,-0.2302398681640625,-0.8241119384765625,
0,2023-09-09 21:08:47.2620,02:55,10,1,2023-09-09 21:08:50.3690,1694311730.369374,-0.0008588694618083537,-0.005557750817388296,-0.0024762072134763002,-0.1611480712890625,0.028656005859375,-0.9858245849609375,96.23197937011719,-23.99591064453125,-41.74183654785156,2023-09-09 21:08:50.0720,1694311730.072033,-1.026104211807251,-0.3540412187576294,-1.4588217735290527,-0.2097320556640625,-0.1696472316980362,-0.9302215576171875,
0,2023-09-09 21:08:47.2620,02:55,10,1,2023-09-09 21:08:50.4690,1694311730.469396,-0.0012258529895916581,-0.004691690672188997,-0.002228533150628209,-0.1576995849609375,0.0266876220703125,-0.9883880615234375,96.22427368164062,-24.013870239257812,-42.00453186035156,2023-09-09 21:08:50.1720,1694311730.1719542,-1.5566058158874512,-0.14610719680786133,-1.9955085515975952,-0.2268218882381916,-0.1334839016199112,-1.0244598388671875,
0,2023-09-09 21:08:47.2620,02:55,10,1,2023-09-09 21:08:50.5690,1694311730.5691729,-0.0006846986943855882,-0.003894340479746461,-0.0035260252188891172,-0.1543731689453125,0.027069091796875,-0.9885711669921875,96.36740112304688,-23.845062255859375,-41.93464660644531,2023-09-09 21:08:50.2720,1694311730.271791,-1.4592883586883545,0.22667355835437775,-2.650832176208496,-0.2059936411678791,0.2473602145910263,-1.1205596923828125,
0,2023-09-09 21:08:47.2620,02:55,10,1,2023-09-09 21:08:50.6680,1694311730.668333,0.0013765880139544606,-0.004114317707717419,-0.004689293913543224,-0.15423583984375,0.0293731689453125,-0.989898681640625,96.260498046875,-24.0611572265625,-41.852996826171875,2023-09-09 21:08:50.3720,1694311730.371743,-0.8252872228622437,0.3518788814544678,-2.563977003097534,-0.1645812764763832,0.6840820163488388,-1.0944976806640625,
0,2023-09-09 21:08:47.2620,02:55,10,1,2023-09-09 21:08:50.7680,1694311730.7680368,-0.0020873856265097857,-0.0030250847339630127,-0.0025771409273147583,-0.1567535400390625,0.029449462890625,-0.9853668212890625,96.220458984375,-23.9942626953125,-41.849365234375,2023-09-09 21:08:50.4710,1694311730.471484,-0.5760898590087891,-0.3830767273902893,-2.6225531101226807,-0.2054748386144638,0.508056640625,-1.00390625,
0,2023-09-09 21:08:47.2620,02:55,10,1,2023-09-09 21:08:50.8700,1694311730.869658,0.00041492050513625145,-0.00449994346126914,-0.0025481125339865685,-0.1590118408203125,0.030914306640625,-0.986663818359375,96.2933349609375,-24.193511962890625,-41.006195068359375,2023-09-09 21:08:50.5710,1694311730.571255,0.5379449725151062,-1.4888471364974976,-1.5356098413467407,-0.20057672262191772,0.2926177829504013,-1.0420379638671875,
0,2023-09-09 21:08:47.2620,02:55,10,1,2023-09-09 21:08:50.9670,1694311730.966883,-0.0008652610122226179,-0.00683207344263792,-0.002883404493331909,-0.15655517578125,0.030548095703125,-0.989898681640625,96.22006225585938,-24.047836303710938,-41.43559265136719,2023-09-09 21:08:50.6710,1694311730.671222,0.12942275404930115,-1.9783687591552734,-0.7629517912864685,-0.2129974067211151,0.4058074951171875,-0.796600341796875,
0,2023-09-09 21:08:47.2620,02:55,10,1,2023-09-09 21:08:51.0700,1694311731.069807,-0.0031188279390335083,-0.0022205437999218702,-0.0036522590089589357,-0.1583251953125,0.0303192138671875,-0.986175537109375,96.23519897460938,-23.950408935546875,-41.31999206542969,2023-09-09 21:08:50.7710,1694311730.7707992,-0.4310548007488251,-0.7847790122032166,-0.41879889369010925,0.021469175815582275,0.1732787936925888,-0.9608306884765625,
0,2023-09-09 21:08:47.2620,02:55,10,1,2023-09-09 21:08:51.1670,1694311731.166652,-0.0025241440162062645,-0.0028873991686850786,-0.00478383619338274,-0.160003662109375,0.0303955078125,-0.9862213134765625,96.28062438964844,-23.701690673828125,-41.518768310546875,2023-09-09 21:08:50.8710,1694311730.8705502,0.24715951085090637,-0.5264436602592468,-0.4677855372428894,-0.9047545790672302,0.17578125,-0.5134735107421875,
0,2023-09-09 21:08:47.2620,02:55,10,1,2023-09-09 21:08:51.2690,1694311731.269246,-0.003945473115891218,-0.0022767363116145134,-0.0012253203894942999,-0.159698486328125,0.0291290283203125,-0.9878387451171875,96.29377746582031,-23.796432495117188,-41.66127014160156,2023-09-09 21:08:50.9710,1694311730.970598,-0.7754136323928833,-0.5044596195220947,-0.5778881311416626,-0.3684844374656677,0.3073272705078125,-0.6624908447265625,
0,2023-09-09 21:08:47.2620,02:55,10,1,2023-09-09 21:08:51.3690,1694311731.369059,-0.0013962953817099333,-0.004333495628088713,-0.0005600627628155053,-0.1586761474609375,0.028594970703125,-0.9881744384765625,96.34893798828125,-23.901138305664062,-41.51751708984375,2023-09-09 21:08:51.0710,1694311731.070545,-0.3408868908882141,-0.5118808150291443,-0.12077274918556213,-0.8170318007469177,0.0604248046875,-0.6422882080078125,
0,2023-09-09 21:08:47.2620,02:55,10,1,2023-09-09 21:08:51.4680,1694311731.468248,-0.0020967067684978247,-0.00436065997928381,-0.0030719563364982605,-0.1597900390625,0.0284423828125,-0.98724365234375,96.25090026855469,-23.846343994140625,-41.71372985839844,2023-09-09 21:08:51.1700,1694311731.17032,-0.39384251832962036,-0.6000295281410217,0.02043137513101101,-0.8830413818359375,0.0973205417394638,-0.681854248046875,
0,2023-09-09 21:08:47.2620,02:55,10,1,2023-09-09 21:08:51.5690,1694311731.5690498,-0.003540406236425042,-0.004354001954197884,-0.0035185683518648148,-0.15826416015625,0.0271148681640625,-0.9890289306640625,96.10006713867188,-23.99273681640625,-41.54261779785156,2023-09-09 21:08:51.2700,1694311731.270144,0.08839229494333267,-0.3284792900085449,-0.11532791703939438,-0.6647033095359802,0.05010986328125,-0.6056671142578125,
0,2023-09-09 21:08:47.2620,02:55,10,1,2023-09-09 21:08:51.6690,1694311731.66923,0.0014120079576969147,-0.0017060210229828954,-0.0027593011036515236,-0.1575927734375,0.0279083251953125,-0.9898223876953125,96.25033569335938,-24.011001586914062,-41.66963195800781,2023-09-09 21:08:51.3700,1694311731.370033,0.30672550201416016,-0.00671842135488987,0.05992668867111206,-0.7689666152000427,0.4753570556640625,-0.5934601426124573,
0,2023-09-09 21:08:47.2620,02:55,10,1,2023-09-09 21:08:51.7660,1694311731.766181,-0.0011733887949958444,-0.00355798308737576,-0.0027260116767138243,-0.1580963134765625,0.0269012451171875,-0.988525390625,96.22047424316406,-24.049896240234375,-41.25416564941406,2023-09-09 21:08:51.4700,1694311731.469832,-0.025832276791334152,0.2381439357995987,0.23953896760940552,-0.888671875,0.20404052734375,-0.56134033203125,
0,2023-09-09 21:08:47.2620,02:55,10,1,2023-09-09 21:08:51.8690,1694311731.869035,0.001198955113068223,-0.0020714066922664642,-0.0024684839881956577,-0.157928466796875,0.0262908935546875,-0.9890289306640625,96.34066772460938,-24.050064086914062,-41.59712219238281,2023-09-09 21:08:51.5700,1694311731.569998,-0.16830666363239288,0.7318206429481506,0.23840396106243134,-0.7372893691062927,0.22845458984375,-0.566162109375,
0,2023-09-09 21:08:47.2620,02:55,10,1,2023-09-09 21:08:51.9690,1694311731.969444,-0.0005848301807418466,-0.005516471806913614,-0.002691656816750765,-0.157684326171875,0.0271148681640625,-0.9906768798828125,96.17205810546875,-23.814224243164062,-41.57682800292969,2023-09-09 21:08:51.6690,1694311731.669409,0.48734021186828613,1.034741997718811,0.4037650525569916,-0.681304931640625,0.3003692626953125,-0.657745361328125,
0,2023-09-09 21:08:47.2620,02:55,10,1,2023-09-09 21:08:52.0700,1694311732.06974,-0.0010237190872430801,-0.005438707303255796,-0.004592088516801596,-0.1575775146484375,0.025970458984375,-0.98956298828125,96.29466247558594,-23.810226440429688,-41.55915832519531,2023-09-09 21:08:51.7690,1694311731.769315,-0.039860211312770844,0.8712140917778015,0.316089928150177,-0.571624755859375,0.282562255859375,-0.758758544921875,
0,2023-09-09 21:08:47.2620,02:55,10,1,2023-09-09 21:08:52.1690,1694311732.169314,-0.0006346312584355474,-0.004811266902834177,-0.004715925548225641,-0.160491943359375,0.025634765625,-0.988006591796875,96.1959228515625,-23.894195556640625,-41.92778015136719,2023-09-09 21:08:51.8690,1694311731.8690882,0.1570437252521515,1.0808779001235962,0.33503156900405884,-0.5392760932445526,0.2625579833984375,-0.8305511474609375,
0,2023-09-09 21:08:47.2620,02:55,10,1,2023-09-09 21:08:52.2700,1694311732.270114,-0.00023808660625945777,-0.006191583350300789,-0.0004596615908667445,-0.1576385498046875,0.02545166015625,-0.9910430908203125,96.35260009765625,-23.93829345703125,-41.429412841796875,2023-09-09 21:08:51.9690,1694311731.9689422,-2.044110059738159,1.5469608306884766,0.15309035778045654,-0.3073730170726776,0.109527587890625,-0.788604736328125,
0,2023-09-09 21:08:47.2620,02:55,10,1,2023-09-09 21:08:52.3690,1694311732.369384,0.0006660565850324929,-0.003221093211323023,-0.005030711181461811,-0.1577301025390625,0.0245819091796875,-0.9893798828125,96.20249938964844,-23.854324340820312,-41.74859619140625,2023-09-09 21:08:52.0690,1694311732.068729,-0.5040586590766907,1.4612469673156738,0.144348606467247,-0.1795959323644638,0.576202392578125,-0.704986572265625,
0,2023-09-09 21:08:47.2620,02:55,10,1,2023-09-09 21:08:52.4690,1694311732.469049,0.00011291803093627095,-0.005816876422613859,-0.0016279903938993812,-0.1559600830078125,0.025421142578125,-0.9907684326171875,96.23222351074219,-23.80963134765625,-41.62513732910156,2023-09-09 21:08:52.1690,1694311732.168643,-0.4748281240463257,1.1157922744750977,-0.29063040018081665,-0.17884822189807892,0.2859191596508026,-0.774749755859375,
0,2023-09-09 21:08:47.2620,02:55,10,1,2023-09-09 21:08:52.5690,1694311732.568753,0.0019510318525135517,-0.0028658276423811913,-0.00119575927965343,-0.1611328125,0.0280609130859375,-0.9862213134765625,96.16566467285156,-23.685256958007812,-41.56126403808594,2023-09-09 21:08:52.2680,1694311732.2684212,0.20655961334705353,0.5717654228210449,0.34397244453430176,-0.1736449934542179,0.4253081977367401,-0.9717864394187927,
0,2023-09-09 21:08:47.2620,02:55,10,1,2023-09-09 21:08:52.6690,1694311732.669104,-0.0003885551996063441,-0.003826962551102042,-0.002796319080516696,-0.1568603515625,0.0304107666015625,-0.98858642578125,96.27024841308594,-23.630905151367188,-41.38386535644531,2023-09-09 21:08:52.3680,1694311732.368314,0.253784716129303,0.11881460249423981,0.3814465403556824,-0.023712136782705784,0.55426025390625,-0.8721923828125,
0,2023-09-09 21:08:47.2620,02:55,10,1,2023-09-09 21:08:52.7690,1694311732.769223,0.00022264027211349458,-0.005287173669785261,-0.004252535756677389,-0.15869140625,0.029083251953125,-0.9878082275390625,96.21235656738281,-23.81011962890625,-41.39215087890625,2023-09-09 21:08:52.4680,1694311732.468122,0.9458573460578918,0.14370130002498627,0.16061465442180634,-0.017150859348475933,0.3249359428882599,-0.960723876953125,
0,2023-09-09 21:08:47.2620,02:55,10,1,2023-09-09 21:08:52.8690,1694311732.869145,-0.0007440872141160071,-0.006996390409767628,-0.003062102710828185,-0.157928466796875,0.0283966064453125,-0.987884521484375,96.22981262207031,-23.7384033203125,-41.37287902832031,2023-09-09 21:08:52.5680,1694311732.567944,0.31074073910713196,0.0423218235373497,0.3104896545410156,0.04986574873328209,0.39544677734375,-0.9550628662109375,
0,2023-09-09 21:08:47.2620,02:55,10,1,2023-09-09 21:08:52.9690,1694311732.968951,1.8908443962573074e-05,-0.00583685003221035,-0.003552124137058854,-0.1565093994140625,0.0279388427734375,-0.9882659912109375,96.16748046875,-23.850631713867188,-41.44032287597656,2023-09-09 21:08:52.6680,1694311732.667867,0.7690969705581665,-0.1000603511929512,0.2840699851512909,0.05436709150671959,0.4230956733226776,-0.8899078369140625,
0,2023-09-09 21:08:47.2620,02:55,10,1,2023-09-09 21:08:53.0700,1694311733.069772,-0.0002817624481394887,-0.0031169636640697718,-0.003620567498728633,-0.1561737060546875,0.0283660888671875,-0.98870849609375,96.27334594726562,-23.644317626953125,-41.24932861328125,2023-09-09 21:08:52.7680,1694311732.767678,0.08352137356996536,-0.13909870386123657,0.5488027930259705,0.11732485517859459,0.4304961860179901,-1.0005340576171875,
0,2023-09-09 21:08:47.2620,02:55,10,1,2023-09-09 21:08:53.1690,1694311733.168974,-0.0019411781104281545,-0.0041132522746920586,-0.0030722226947546005,-0.1595458984375,0.0288848876953125,-0.9869232177734375,96.34062194824219,-23.650360107421875,-41.36543273925781,2023-09-09 21:08:52.8670,1694311732.8673968,-0.4658553898334503,-0.11152099817991257,0.17002789676189423,0.04939272254705429,0.2845306396484375,-0.95330810546875,
0,2023-09-09 21:08:47.2620,02:55,10,1,2023-09-09 21:08:53.2690,1694311733.268944,-0.0007371630053967237,-0.005570800509303808,-0.003224821761250496,-0.158477783203125,0.0294189453125,-0.988494873046875,96.23976135253906,-23.641845703125,-41.34185791015625,2023-09-09 21:08:52.9670,1694311732.9672298,0.0671699047088623,0.2811583876609802,-0.19188423454761505,0.050384536385536194,0.3878021538257599,-0.944427490234375,
0,2023-09-09 21:08:47.2620,02:55,10,1,2023-09-09 21:08:53.3690,1694311733.368905,-0.001035436987876892,-0.00444002216681838,-0.002320412313565612,-0.1580352783203125,0.0279388427734375,-0.9873199462890625,96.18234252929688,-23.775619506835938,-41.49836730957031,2023-09-09 21:08:53.0670,1694311733.067048,-0.4687911868095398,0.33822447061538696,-0.36271846294403076,0.08071901649236679,0.3016814887523651,-0.9347686767578125,
0,2023-09-09 21:08:47.2620,02:55,10,1,2023-09-09 21:08:53.4690,1694311733.468979,-0.0006511429091915488,-0.0031457259319722652,-0.002688993699848652,-0.159698486328125,0.027191162109375,-0.9881744384765625,96.30882263183594,-24.048736572265625,-41.51625061035156,2023-09-09 21:08:53.1670,1694311733.166843,-0.05226901173591614,-0.04678834229707718,0.1375577598810196,0.0915527492761612,0.3927764594554901,-0.9298400282859802,
0,2023-09-09 21:08:47.2620,02:55,10,1,2023-09-09 21:08:53.5690,1694311733.5693579,-0.0007147924043238163,-0.003490072675049305,-0.0035566515289247036,-0.1587982177734375,0.028106689453125,-0.9890899658203125,96.49029541015625,-24.06494140625,-41.393096923828125,2023-09-09 21:08:53.2670,1694311733.266842,-0.16349239647388458,0.007247328758239746,-0.030140720307826996,0.07334902137517929,0.3789825141429901,-0.9188385009765625,
0,2023-09-09 21:08:47.2620,02:55,10,1,2023-09-09 21:08:53.6690,1694311733.669173,-0.0004410194815136492,-0.004193946253508329,-0.0013688647886738181,-0.155487060546875,0.026031494140625,-0.990081787109375,96.35688781738281,-23.70770263671875,-41.22137451171875,2023-09-09 21:08:53.3670,1694311733.366698,0.21383731067180634,0.06417186558246613,-0.009567002765834332,0.08576967567205429,0.3721923828125,-0.9236602783203125,
0,2023-09-09 21:08:47.2620,02:55,10,1,2023-09-09 21:08:53.7690,1694311733.768557,-0.0022530341520905495,-0.006579073145985603,-0.0022309301421046257,-0.1576385498046875,0.02825927734375,-0.9886932373046875,96.35688781738281,-23.70770263671875,-41.22137451171875,2023-09-09 21:08:53.4660,1694311733.4662662,-0.16860774159431458,-0.0018280576914548874,0.0078995730727911,0.09408571571111679,0.3471831977367401,-0.9210357069969177,
0,2023-09-09 21:08:47.2620,02:55,10,1,2023-09-09 21:08:53.8690,1694311733.869154,-0.0019656792283058167,-0.0049287122674286366,-0.0024921861477196217,-0.1576080322265625,0.0278778076171875,-0.987396240234375,96.18302917480469,-23.771682739257812,-41.489654541015625,2023-09-09 21:08:53.5660,1694311733.5663881,-0.062345683574676514,-0.021462611854076385,-0.007102846167981625,0.08364871144294739,0.3806915283203125,-0.9266357421875,
0,2023-09-09 21:08:47.2620,02:55,10,1,2023-09-09 21:08:53.9690,1694311733.9690251,0.0006234460161067545,-0.0035004590172320604,-0.004476773552596569,-0.1555633544921875,0.0298004150390625,-0.989105224609375,96.17576599121094,-23.640213012695312,-41.71507263183594,2023-09-09 21:08:53.6660,1694311733.666072,-0.020642507821321487,0.018564831465482712,0.02215573936700821,0.0807800441980362,0.3802947700023651,-0.9207915663719177,
0,2023-09-09 21:08:47.2620,02:55,10,1,2023-09-09 21:08:54.0690,1694311734.069211,0.0011531487107276917,-0.005109274294227362,-0.003534547286108136,-0.1591644287109375,0.0300445556640625,-0.986358642578125,96.2603759765625,-23.890045166015625,-41.56947326660156,2023-09-09 21:08:53.7660,1694311733.76602,0.006200756411999464,0.011687085032463074,0.0032900734804570675,0.0853881984949112,0.3882140517234802,-0.9180908203125,
0,2023-09-09 21:08:47.2620,02:55,10,1,2023-09-09 21:08:54.1690,1694311734.169088,-0.0018106831703335047,-0.0035356127191334963,-0.0013251889031380415,-0.1582183837890625,0.0311431884765625,-0.98675537109375,96.33827209472656,-23.926223754882812,-41.522369384765625,2023-09-09 21:08:53.8660,1694311733.8657432,0.055920109152793884,0.020708277821540833,0.012396752834320068,0.0914001613855362,0.3913116157054901,-0.915802001953125,
0,2023-09-09 21:08:47.2620,02:55,10,1,2023-09-09 21:08:54.2690,1694311734.269124,-0.0012335762148723006,-0.001961151836439967,0.00016644757124595344,-0.1583099365234375,0.0302581787109375,-0.9875030517578125,96.36776733398438,-23.944839477539062,-41.538116455078125,2023-09-09 21:08:53.9660,1694311733.965574,0.043512776494026184,-0.003132740966975689,-0.007571928668767214,0.09243777394294739,0.3771362006664276,-0.918060302734375,
0,2023-09-09 21:08:47.2620,02:55,10,1,2023-09-09 21:08:54.3690,1694311734.3686972,-0.0008857673965394497,-0.0054541537538170815,-0.0035563854034990072,-0.1576690673828125,0.0299530029296875,-0.9886474609375,96.42977905273438,-23.740142822265625,-41.55747985839844,2023-09-09 21:08:54.0660,1694311734.0656419,-0.001763293519616127,0.008374112658202648,-0.001126446295529604,0.08955386281013489,0.368377685546875,-0.91943359375,
0,2023-09-09 21:08:47.2620,02:55,10,1,2023-09-09 21:08:54.4680,1694311734.4679332,0.0004013383586425334,-0.007180680986493826,-0.0016998957144096494,-0.157562255859375,0.02825927734375,-0.9889678955078125,96.41653442382812,-23.704086303710938,-41.42878723144531,2023-09-09 21:08:54.1650,1694311734.165248,0.028127361088991165,-0.018582670018076897,-0.013150418177247047,0.09265138953924179,0.3831634223461151,-0.917510986328125,
0,2023-09-09 21:08:47.2620,02:55,10,1,2023-09-09 21:08:54.5690,1694311734.5690532,-0.0003430151555221528,-0.004111920483410358,-0.0032431974541395903,-0.158203125,0.0279083251953125,-0.988739013671875,96.31367492675781,-24.039398193359375,-41.46430969238281,2023-09-09 21:08:54.2650,1694311734.265078,-0.06033293157815933,0.013661952689290047,0.0025309063494205475,0.08297732472419739,0.3724517822265625,-0.9190521240234375,
0,2023-09-09 21:08:47.2620,02:55,10,1,2023-09-09 21:08:54.6670,1694311734.667063,-0.0027236149180680513,-0.00207726564258337,-0.0026461167726665735,-0.1567840576171875,0.0288543701171875,-0.9892578125,96.18115234375,-23.951156616210938,-41.36177062988281,2023-09-09 21:08:54.3650,1694311734.364907,0.0042233592830598354,-0.016701413318514824,-0.008006788790225983,0.0946197658777237,0.3894500434398651,-0.9167633056640625,
0,2023-09-09 21:08:47.2620,02:55,10,1,2023-09-09 21:08:54.7670,1694311734.7667542,-0.003728425595909357,-0.0034796863328665495,-0.0028610338922590017,-0.158966064453125,0.0275421142578125,-0.9886932373046875,96.28213500976562,-24.02435302734375,-41.34382629394531,2023-09-09 21:08:54.4650,1694311734.464762,-0.013582468964159489,-0.007322425954043865,0.0011298172175884247,0.0882415920495987,0.3869628608226776,-0.9154967665672302,
0,2023-09-09 21:08:47.2620,02:55,10,1,2023-09-09 21:08:54.8690,1694311734.869055,0.000529702752828598,-0.0049127331003546715,-0.0026551715563982725,-0.157440185546875,0.0275726318359375,-0.989166259765625,96.25775146484375,-23.8350830078125,-41.66099548339844,2023-09-09 21:08:54.5650,1694311734.564598,-0.022453058511018753,-0.00042856764048337936,-0.006720981560647488,0.0861053541302681,0.3813781440258026,-0.9188079237937927,
0,2023-09-09 21:08:47.2620,02:55,10,1,2023-09-09 21:08:54.9690,1694311734.9689422,-0.0003278351214248687,-0.0005819007055833936,-0.0011851066956296563,-0.15667724609375,0.0278778076171875,-0.9893951416015625,96.29957580566406,-23.971664428710938,-41.63755798339844,2023-09-09 21:08:54.6640,1694311734.664408,-0.006254713982343674,-0.00229744054377079,0.0009367048041895032,0.08392336219549179,0.3807830810546875,-0.919464111328125,
0,2023-09-09 21:08:47.2620,02:55,10,1,2023-09-09 21:08:55.0690,1694311735.069495,-0.0007459514308720827,-0.0047835698351264,-0.0017747305100783706,-0.1559600830078125,0.02764892578125,-0.9884796142578125,96.42218017578125,-24.080780029296875,-41.52851867675781,2023-09-09 21:08:54.7640,1694311734.764308,0.014192236587405205,-0.006411758251488209,-0.007838544435799122,0.0874786525964737,0.3929443061351776,-0.9144744277000427,
0,2023-09-09 21:08:47.2620,02:55,10,1,2023-09-09 21:08:55.1690,1694311735.1691651,-0.0012405004817992449,-0.004983306862413883,-0.002925216220319271,-0.1564178466796875,0.0298004150390625,-0.9889984130859375,96.44479370117188,-23.950241088867188,-41.39801025390625,2023-09-09 21:08:54.8640,1694311734.864194,-0.014413374476134777,-0.005728256888687611,-0.006019305437803268,0.08514406532049179,0.382537841796875,-0.91583251953125,
0,2023-09-09 21:08:47.2620,02:55,10,1,2023-09-09 21:08:55.2700,1694311735.270122,-0.001981658162549138,-0.005593437235802412,-0.0016796556301414967,-0.1578369140625,0.0301361083984375,-0.986785888671875,96.24974060058594,-23.900314331054688,-41.293792724609375,2023-09-09 21:08:54.9640,1694311734.963976,-0.02273169346153736,-0.0015778541564941406,-0.002437653485685587,0.08993532508611679,0.3880920112133026,-0.9168853759765625,
0,2023-09-09 21:08:47.2620,02:55,10,1,2023-09-09 21:08:55.3690,1694311735.369049,-0.0020623519085347652,-0.004801146686077118,-0.003754524514079094,-0.1568145751953125,0.0305938720703125,-0.98785400390625,96.46061706542969,-24.137786865234375,-41.659149169921875,2023-09-09 21:08:55.0640,1694311735.0638041,-0.019617924466729164,0.0016094166785478592,-0.0023381845094263554,0.0861663967370987,0.3805084228515625,-0.914947509765625,
0,2023-09-09 21:08:47.2620,02:55,10,1,2023-09-09 21:08:55.4690,1694311735.469135,-0.0030088394414633512,-0.0009110674145631492,-0.003510312642902136,-0.1574554443359375,0.0291290283203125,-0.987091064453125,96.34564208984375,-24.117279052734375,-41.42909240722656,2023-09-09 21:08:55.1640,1694311735.163616,-0.0196183230727911,-0.000978643074631691,-0.002872214885428548,0.08871462196111679,0.38885498046875,-0.9149322509765625,
0,2023-09-09 21:08:47.2620,02:55,10,1,2023-09-09 21:08:55.5690,1694311735.568877,-0.0019765980541706085,-0.004830974154174328,-0.0006679208017885685,-0.159027099609375,0.02862548828125,-0.9871978759765625,96.40510559082031,-23.877182006835938,-41.33537292480469,2023-09-09 21:08:55.2640,1694311735.2635078,-0.0021100370213389397,-0.0029411260038614273,-0.004795616026967764,0.0838623195886612,0.390228271484375,-0.912811279296875,
0,2023-09-09 21:08:47.2620,02:55,10,1,2023-09-09 21:08:55.6700,1694311735.669622,-0.0022772690281271935,-0.0030778152868151665,-0.001957423286512494,-0.1564788818359375,0.0277557373046875,-0.989044189453125,96.346923828125,-24.08929443359375,-41.3759765625,2023-09-09 21:08:55.3630,1694311735.36333,-0.01972391828894615,-0.010261091403663158,-0.0024842587299644947,0.08790590614080429,0.385955810546875,-0.9179229736328125,
0,2023-09-09 21:08:47.2620,02:55,10,1,2023-09-09 21:08:55.7680,1694311735.768485,-0.0028607675340026617,-0.005823800805956125,-0.00210602767765522,-0.15679931640625,0.0277557373046875,-0.988922119140625,96.32725524902344,-24.121612548828125,-41.45735168457031,2023-09-09 21:08:55.4630,1694311735.463023,-0.022680092602968216,-0.0010674595832824707,0.00045803480315953493,0.0820923000574112,0.3817901611328125,-0.91650390625,
0,2023-09-09 21:08:47.2620,02:55,10,1,2023-09-09 21:08:55.8690,1694311735.8690128,-0.00042637207661755383,-0.005390504375100136,-0.0035233621019870043,-0.157745361328125,0.027252197265625,-0.989410400390625,96.33421325683594,-24.067886352539062,-41.3709716796875,2023-09-09 21:08:55.5630,1694311735.562933,-0.006253049708902836,0.012203073129057884,0.0065109338611364365,0.0833892971277237,0.3907165229320526,-0.9122771620750427,
0,2023-09-09 21:08:47.2620,02:55,10,1,2023-09-09 21:08:55.9690,1694311735.968896,-0.0014554174849763513,-0.0035092474427074194,-0.003418433479964733,-0.157623291015625,0.026641845703125,-0.98974609375,96.34930419921875,-23.931427001953125,-41.366851806640625,2023-09-09 21:08:55.6630,1694311735.662807,0.012656258419156075,0.007537879049777985,0.0034835522528737783,0.08517458289861679,0.395355224609375,-0.910919189453125,
0,2023-09-09 21:08:47.2620,02:55,10,1,2023-09-09 21:08:56.0700,1694311736.069521,-0.002159024588763714,-0.004791026934981346,-0.0031819448340684175,-0.1578216552734375,0.0289459228515625,-0.9879302978515625,96.41812133789062,-23.908035278320312,-41.59593200683594,2023-09-09 21:08:55.7630,1694311735.762724,-0.008308610878884792,0.011559918522834778,0.0022531384602189064,0.0860748440027237,0.3953704833984375,-0.9118499755859375,
0,2023-09-09 21:08:47.2620,02:55,10,1,2023-09-09 21:08:56.1690,1694311736.168915,6.97748182574287e-05,-0.005678924731910229,-0.004769455175846815,-0.1560211181640625,0.0295257568359375,-0.9879913330078125,96.3443603515625,-23.646408081054688,-41.3990478515625,2023-09-09 21:08:55.8620,1694311735.862488,0.01306552067399025,-0.006681935861706734,-0.00499245710670948,0.0881042629480362,0.3890380263328552,-0.9129790663719177,
0,2023-09-09 21:08:47.2620,02:55,10,1,2023-09-09 21:08:56.2660,1694311736.266195,-0.00387330143712461,-0.0010815097484737635,-0.0006442186422646046,-0.157867431640625,0.0308380126953125,-0.9862823486328125,96.24880981445312,-23.880126953125,-41.487945556640625,2023-09-09 21:08:55.9620,1694311735.962394,0.007386462297290564,0.004798686131834984,0.003999506123363972,0.0863189846277237,0.398895263671875,-0.91339111328125,
0,2023-09-09 21:08:47.2620,02:55,10,1,2023-09-09 21:08:56.3690,1694311736.369155,-0.0020154803059995174,-0.004890096373856068,-0.004202734678983688,-0.157684326171875,0.0292816162109375,-0.9869384765625,96.36077880859375,-24.015213012695312,-41.43257141113281,2023-09-09 21:08:56.0620,1694311736.062429,0.0220956988632679,-0.011606520973145962,-0.00668486300855875,0.08793642371892929,0.3970946967601776,-0.912628173828125,
0,2023-09-09 21:08:47.2620,02:55,10,1,2023-09-09 21:08:56.4690,1694311736.469116,-0.0006463492172770202,-0.004473578184843063,-0.0027244137600064278,-0.157562255859375,0.029022216796875,-0.988555908203125,96.23941040039062,-23.996871948242188,-41.59527587890625,2023-09-09 21:08:56.1620,1694311736.161998,-0.029210299253463745,0.011888552457094193,0.00420064153149724,0.08418276906013489,0.3901214301586151,-0.91375732421875,
0,2023-09-09 21:08:47.2620,02:55,10,1,2023-09-09 21:08:56.5690,1694311736.5686789,-0.003276220755651593,-0.005842708982527256,-0.000990429543890059,-0.1575469970703125,0.02880859375,-0.986907958984375,96.29464721679688,-24.0096435546875,-41.374267578125,2023-09-09 21:08:56.2620,1694311736.2618198,-0.008545566350221634,-0.002350437454879284,-0.001914076041430235,0.08920291066169739,0.3916168212890625,-0.911865234375,
0,2023-09-09 21:08:47.2620,02:55,10,1,2023-09-09 21:08:56.6690,1694311736.66904,-3.968110104324296e-05,-0.005645102355629206,-0.0034194989129900932,-0.1564178466796875,0.0290069580078125,-0.9893951416015625,96.34051513671875,-24.110107421875,-41.41510009765625,2023-09-09 21:08:56.3620,1694311736.36163,-0.012102683074772358,0.005894576199352741,0.0019051299896091223,0.08738710731267929,0.391143798828125,-0.91180419921875,
0,2023-09-09 21:08:47.2620,02:55,10,1,2023-09-09 21:08:56.7690,1694311736.769212,-8.708536915946752e-05,-0.0057047572918236256,-0.002543052425608039,-0.15887451171875,0.0292510986328125,-0.9873809814453125,96.30319213867188,-23.889404296875,-41.84625244140625,2023-09-09 21:08:56.4610,1694311736.461454,0.0018708560382947326,-0.003917441703379154,0.00038769416278228164,0.0884399488568306,0.3979033827781677,-0.9102324843406677,
0,2023-09-09 21:08:47.2620,02:55,10,1,2023-09-09 21:08:56.8690,1694311736.8688679,-0.0030658310279250145,-0.002798982197418809,-0.0036642432678490877,-0.1580047607421875,0.0288848876953125,-0.9874114990234375,96.1976318359375,-23.789962768554688,-41.576690673828125,2023-09-09 21:08:56.5610,1694311736.561359,-0.010121490806341171,0.0013076802715659142,-0.003451984841376543,0.08723451942205429,0.39453125,-0.9109344482421875,
0,2023-09-09 21:08:47.2620,02:55,10,1,2023-09-09 21:08:56.9690,1694311736.9690208,0.0009025452891364694,-0.0051750545389950275,-0.0033862092532217503,-0.157501220703125,0.0293731689453125,-0.9874267578125,96.27139282226562,-23.926467895507812,-41.557342529296875,2023-09-09 21:08:56.6610,1694311736.661114,-0.014187406748533249,0.012783907353878021,0.004596121143549681,0.08744814246892929,0.388885498046875,-0.9108428955078125,
0,2023-09-09 21:08:47.2620,02:55,10,1,2023-09-09 21:08:57.0690,1694311737.0689359,-0.001210673013702035,-0.005119660869240761,-0.002802710747346282,-0.15789794921875,0.0277099609375,-0.988494873046875,96.20988464355469,-23.96441650390625,-41.734466552734375,2023-09-09 21:08:56.7610,1694311736.761296,0.0005075840745121241,-0.007354251109063625,-0.0052849724888801575,0.0910034328699112,0.3964996337890625,-0.9091796875,
0,2023-09-09 21:08:47.2620,02:55,10,1,2023-09-09 21:08:57.1680,1694311737.1677551,-0.003236273303627968,-0.0049497513100504875,-0.0014554174849763513,-0.1578369140625,0.0277252197265625,-0.9881134033203125,96.0216064453125,-23.649566650390625,-41.976898193359375,2023-09-09 21:08:56.8610,1694311736.8607001,-0.025175008922815323,0.011824769899249077,0.00628692889586091,0.0883026272058487,0.3988799750804901,-0.9090270400047302,
0,2023-09-09 21:08:47.2620,02:55,10,1,2023-09-09 21:08:57.2680,1694311737.268416,-0.0026104305870831013,-0.0057617491111159325,-0.0033534523099660873,-0.156158447265625,0.0284271240234375,-0.9889068603515625,96.06361389160156,-23.887496948242188,-41.60249328613281,2023-09-09 21:08:56.9610,1694311736.96074,-0.010897469706833363,-0.0008165901526808739,-0.0015075111296027899,0.09072878956794739,0.3973236083984375,-0.9092864990234375,
0,2023-09-09 21:08:47.2620,02:55,10,1,2023-09-09 21:08:57.3690,1694311737.368968,0.00011371697473805398,-0.003477022983133793,-0.004098604898899794,-0.15789794921875,0.0291748046875,-0.9867401123046875,96.14964294433594,-23.634124755859375,-41.787384033203125,2023-09-09 21:08:57.0610,1694311737.060504,-0.010906191542744637,0.009519005194306374,-0.003481346182525158,0.08810427784919739,0.3938750922679901,-0.9104156494140625,
0,2023-09-09 21:08:47.2620,02:55,10,1,2023-09-09 21:08:57.4690,1694311737.4689,0.0016298545524477959,-0.004250937607139349,-0.002980343531817198,-0.157196044921875,0.028839111328125,-0.98809814453125,96.09454345703125,-23.791305541992188,-41.255401611328125,2023-09-09 21:08:57.1600,1694311737.160294,0.007307433057576418,-0.0009821057319641113,-0.0006887555355206132,0.09397890418767929,0.4008178412914276,-0.9077606201171875,
0,2023-09-09 21:08:47.2620,02:55,10,1,2023-09-09 21:08:57.5690,1694311737.569176,0.0012373046483844519,-0.004484230652451515,-0.003117496380582452,-0.15728759765625,0.028564453125,-0.989593505859375,96.28439331054688,-23.945526123046875,-41.29902648925781,2023-09-09 21:08:57.2600,1694311737.2601,-0.004963214509189129,0.002534332685172558,-0.0026021702215075493,0.08856205642223358,0.39945992827415466,-0.9076537489891052,
0,2023-09-09 21:08:47.2620,02:55,10,1,2023-09-09 21:08:57.6690,1694311737.669183,0.0014423680258914828,-0.006764961872249842,-0.0027949875220656395,-0.158477783203125,0.0287322998046875,-0.9885406494140625,96.29257202148438,-23.690933227539062,-41.32171630859375,2023-09-09 21:08:57.3600,1694311737.359987,-0.006049650721251965,0.002972955349832773,-0.0015167323872447014,0.0897216871380806,0.3971099555492401,-0.9088744521141052,
0,2023-09-09 21:08:47.2620,02:55,10,1,2023-09-09 21:08:57.7680,1694311737.767848,-0.0012903015594929457,-0.003948136232793331,-0.003233343828469515,-0.15948486328125,0.028778076171875,-0.988311767578125,96.07933044433594,-23.848922729492188,-41.303192138671875,2023-09-09 21:08:57.4600,1694311737.460036,0.002045160159468651,-0.002802375704050064,0.0015313220210373402,0.09324648976325989,0.4035339057445526,-0.90960693359375,
0,2023-09-09 21:08:47.2620,02:55,10,1,2023-09-09 21:08:57.8700,1694311737.869591,-0.0014602112350985408,-0.005087170284241438,-0.0018391790799796581,-0.158172607421875,0.0284881591796875,-0.9876251220703125,96.33169555664062,-24.220443725585938,-41.49249267578125,2023-09-09 21:08:57.5600,1694311737.55963,-0.011801213957369328,0.009594505652785301,-0.000431261258199811,0.08779909461736679,0.3907470405101776,-0.9100798964500427,
0,2023-09-09 21:08:47.2620,02:55,10,1,2023-09-09 21:08:57.9690,1694311737.969324,-0.0012112056137993932,-0.0036602485924959183,-0.003138535423204303,-0.1564788818359375,0.0278472900390625,-0.989959716796875,96.27548217773438,-23.857131958007812,-41.35310363769531,2023-09-09 21:08:57.6590,1694311737.659481,-0.005827676504850388,0.005814548581838608,0.003147328272461891,0.0919494777917862,0.4002685546875,-0.90740966796875,
0,2023-09-09 21:08:47.2620,02:55,10,1,2023-09-09 21:08:58.0700,1694311738.069839,0.00036751621519215405,-0.0019118833588436246,-0.0019225359428673983,-0.1603546142578125,0.0275421142578125,-0.9875640869140625,96.34895324707031,-23.859649658203125,-41.53373718261719,2023-09-09 21:08:57.7590,1694311737.759402,0.0019250514451414347,0.0038965395651757717,0.0036332218442112207,0.09411624073982239,0.402862548828125,-0.9087371826171875,
0,2023-09-09 21:08:47.2620,02:55,10,1,2023-09-09 21:08:58.1660,1694311738.165822,-0.0031140341889113188,-0.006155896931886673,-0.0031228226143866777,-0.1601409912109375,0.0264892578125,-0.98809814453125,96.19969177246094,-23.779006958007812,-41.59326171875,2023-09-09 21:08:57.8590,1694311737.859283,-0.01414406206458807,0.0063722142949700356,2.2574677132070065e-05,0.09384157508611679,0.4032135009765625,-0.9076690673828125,
0,2023-09-09 21:08:47.2620,02:55,10,1,2023-09-09 21:08:58.2700,1694311738.27017,-0.002430933527648449,-0.004803809802979231,-0.0025947177782654762,-0.1563873291015625,0.0260772705078125,-0.9902801513671875,96.359619140625,-23.9901123046875,-41.67100524902344,2023-09-09 21:08:57.9590,1694311737.959296,0.00036091043148189783,7.264036685228348e-05,0.0011553170625120401,0.09062197059392929,0.398345947265625,-0.908477783203125,
0,2023-09-09 21:08:47.2620,02:55,10,1,2023-09-09 21:08:58.3690,1694311738.369487,-0.0022237394005060196,-0.0057036918587982655,-0.002653573639690876,-0.158111572265625,0.0256195068359375,-0.9890899658203125,96.33018493652344,-23.86328125,-41.74482727050781,2023-09-09 21:08:58.0590,1694311738.058865,0.02243192493915558,-0.0005991421639919281,0.00278686941601336,0.0927124172449112,0.4099884033203125,-0.9062957763671875,
0,2023-09-09 21:08:47.2620,02:55,10,1,2023-09-09 21:08:58.4700,1694311738.470214,-0.002046905690804124,-0.004338023252785206,-0.0007454187725670636,-0.1576995849609375,0.026397705078125,-0.9883880615234375,96.35389709472656,-24.265167236328125,-41.61778259277344,2023-09-09 21:08:58.1590,1694311738.1587949,-0.015065383166074753,0.004453673027455807,0.0004306375631131232,0.0942230373620987,0.40472412109375,-0.905029296875,
0,2023-09-09 21:08:47.2620,02:55,10,1,2023-09-09 21:08:58.5700,1694311738.5704079,0.00013688647595699877,-0.002410160843282938,-0.0017156084068119526,-0.1573028564453125,0.027191162109375,-0.9875946044921875,96.29832458496094,-23.968063354492188,-41.80517578125,2023-09-09 21:08:58.2590,1694311738.258641,-0.02710040844976902,-0.0029910607263445854,-0.008180061355233192,0.0966949611902237,0.395904541015625,-0.9088591933250427,
0,2023-09-09 21:08:47.2620,02:55,10,1,2023-09-09 21:08:58.6710,1694311738.671423,0.0003787015157286078,-0.0057401773519814014,-0.0029619678389281034,-0.156219482421875,0.029052734375,-0.9879608154296875,96.360107421875,-23.955245971679688,-41.7210693359375,2023-09-09 21:08:58.3580,1694311738.3583179,-0.002534944098442793,7.383804768323898e-05,0.0022611613385379314,0.0917816311120987,0.3964996039867401,-0.9069365859031677,
0,2023-09-09 21:08:47.2620,02:55,10,1,2023-09-09 21:08:58.7700,1694311738.770014,-0.0006032059900462627,-0.00472418125718832,-0.0025531724095344543,-0.1583099365234375,0.029876708984375,-0.987060546875,96.28005981445312,-24.108856201171875,-41.5516357421875,2023-09-09 21:08:58.4580,1694311738.4582229,-0.009878145530819893,0.006213623099029064,0.0006792770000174642,0.09492494910955429,0.410614013671875,-0.9062652587890625,
0,2023-09-09 21:08:47.2620,02:55,10,1,2023-09-09 21:08:58.8700,1694311738.8703651,-0.002576608443632722,-0.003906058380380273,-0.0033750240691006184,-0.1577911376953125,0.0300750732421875,-0.9876708984375,96.14329528808594,-23.88299560546875,-41.6839599609375,2023-09-09 21:08:58.5580,1694311738.557805,-0.010418499819934368,0.003696668893098831,0.0016654453938826919,0.09169009327888489,0.4033355712890625,-0.9053191542625427,
0,2023-09-09 21:08:47.2620,02:55,10,1,2023-09-09 21:08:58.9710,1694311738.9706879,0.0006889597862027586,-0.002718821167945862,-0.0022176143247634172,-0.1584014892578125,0.030242919921875,-0.9873504638671875,96.31596374511719,-24.1044921875,-41.61470031738281,2023-09-09 21:08:58.6580,1694311738.657845,-0.01587025821208954,0.01129892934113741,0.0033052871003746986,0.09541323781013489,0.4044494926929474,-0.9040374755859375,
0,2023-09-09 21:08:47.2620,02:55,10,1,2023-09-09 21:08:59.0710,1694311739.070847,-0.0028756812680512667,-0.004305532667785883,-0.004246943164616823,-0.1576995849609375,0.028594970703125,-0.988006591796875,96.19602966308594,-24.214614868164062,-41.51220703125,2023-09-09 21:08:58.7580,1694311738.7576308,0.01015428639948368,-0.004734632559120655,-0.0033870369661599398,0.09469606727361679,0.4091033637523651,-0.9050750732421875,
0,2023-09-09 21:08:47.2620,02:55,10,1,2023-09-09 21:08:59.1670,1694311739.1671991,0.001055943313986063,-0.004382231738418341,-0.0044051348231732845,-0.1592559814453125,0.0290069580078125,-0.9870758056640625,96.21018981933594,-23.796844482421875,-41.62306213378906,2023-09-09 21:08:58.8580,1694311738.857585,-0.008763611316680908,0.006235993001610041,0.00015436788089573383,0.0952911451458931,0.4006500244140625,-0.9065703749656677,
0,2023-09-09 21:08:47.2620,02:55,10,1,2023-09-09 21:08:59.2710,1694311739.271229,-0.0025073662400245667,-0.0025273398496210575,-0.0023374564480036497,-0.1569976806640625,0.027252197265625,-0.9895477294921875,96.21153259277344,-23.918975830078125,-41.86163330078125,2023-09-09 21:08:58.9570,1694311738.957275,0.0008503994904458523,-0.0002253679558634758,-0.0003118184395134449,0.09602358937263489,0.4052886664867401,-0.9056549072265625,
0,2023-09-09 21:08:47.2620,02:55,10,1,2023-09-09 21:08:59.3710,1694311739.371197,-0.00256435782648623,-0.0039175101555883884,-0.001002680161036551,-0.1578826904296875,0.0272369384765625,-0.988861083984375,96.39051818847656,-24.14447021484375,-41.49092102050781,2023-09-09 21:08:59.0570,1694311739.05729,0.002376657212153077,0.008185161277651787,0.0065175918862223625,0.09452822059392929,0.4070587158203125,-0.9044189453125,
0,2023-09-09 21:08:47.2620,02:55,10,1,2023-09-09 21:08:59.4710,1694311739.4711618,0.0001233043585671112,-0.001776328426785767,-0.002576075727120042,-0.157806396484375,0.0278778076171875,-0.989166259765625,96.27108764648438,-23.815933227539062,-41.35955810546875,2023-09-09 21:08:59.1570,1694311739.156983,0.035466235131025314,-0.012486694380640984,-0.0008703165221959352,0.09896855801343918,0.41473397612571716,-0.90496826171875,
0,2023-09-09 21:08:47.2620,02:55,10,1,2023-09-09 21:08:59.5710,1694311739.570857,-0.001023452845402062,-0.0026847326662391424,0.00020905814017169178,-0.155975341796875,0.0275726318359375,-0.9894256591796875,96.38478088378906,-24.077056884765625,-41.31103515625,2023-09-09 21:08:59.2570,1694311739.256839,-0.0405922494828701,0.014301642775535583,0.0026809754781425,0.0934906154870987,0.4076995253562927,-0.9044494032859802,
0,2023-09-09 21:08:47.2620,02:55,10,1,2023-09-09 21:08:59.6710,1694311739.6713,-0.0035382758360356092,-0.003694869577884674,-0.0036365464329719543,-0.1581878662109375,0.0285491943359375,-0.987518310546875,96.26835632324219,-23.716476440429688,-41.68495178222656,2023-09-09 21:08:59.3570,1694311739.3567672,-0.002095922129228711,-0.004494016058743,-0.0024919817224144936,0.0963592678308487,0.4063873291015625,-0.9024505615234375,
0,2023-09-09 21:08:47.2620,02:55,10,1,2023-09-09 21:08:59.7710,1694311739.771477,-0.0006205165409483016,-0.0011550129856914282,-0.003858920419588685,-0.157684326171875,0.0310211181640625,-0.987762451171875,96.34414672851562,-23.920944213867188,-41.6846923828125,2023-09-09 21:08:59.4570,1694311739.4565458,-0.0016293362714350224,0.005381251685321331,0.005299761425703764,0.09744265675544739,0.4033203125,-0.90313720703125,
0,2023-09-09 21:08:47.2620,02:55,10,1,2023-09-09 21:08:59.8720,1694311739.872194,-0.0020042951218783855,-0.001811748486943543,-0.004508731886744499,-0.1579437255859375,0.0306854248046875,-0.986480712890625,96.23165893554688,-23.968521118164062,-41.49505615234375,2023-09-09 21:08:59.5560,1694311739.556478,0.03214127570390701,-0.007843207567930222,0.0020435811020433903,0.0960693508386612,0.4113311469554901,-0.9031676650047302,
0,2023-09-09 21:08:47.2620,02:55,10,1,2023-09-09 21:08:59.9720,1694311739.972279,-0.0022450448013842106,-0.004890362732112408,-0.005534048657864332,-0.1564483642578125,0.029937744140625,-0.98822021484375,96.20147705078125,-23.847900390625,-41.382476806640625,2023-09-09 21:08:59.6560,1694311739.656193,0.012380022555589676,-0.004760731011629105,0.0009498540312051773,0.09757997840642929,0.4107513427734375,-0.9042205810546875,
0,2023-09-09 21:08:47.2620,02:55,10,1,2023-09-09 21:09:00.0710,1694311740.070959,-0.0043590618297457695,-0.004349474795162678,-0.003245061729103327,-0.1576385498046875,0.0294036865234375,-0.98773193359375,96.27156066894531,-23.94989013671875,-41.22364807128906,2023-09-09 21:08:59.7560,1694311739.7560658,-0.011184291914105415,-0.003621164709329605,-0.0004780662711709738,0.0950317457318306,0.4054717719554901,-0.9066314101219177,
0,2023-09-09 21:08:47.2620,02:55,10,1,2023-09-09 21:09:00.1710,1694311740.170578,-0.0015781891997903585,-0.0041060615330934525,-0.003698864486068487,-0.158294677734375,0.0288238525390625,-0.987457275390625,96.19723510742188,-23.832061767578125,-41.61994934082031,2023-09-09 21:08:59.8560,1694311739.855849,0.0007677749963477254,-0.011992145329713821,-0.005363002885133028,0.09574893116950989,0.4040832221508026,-0.9044647216796875,
0,2023-09-09 21:08:47.2620,02:55,10,1,2023-09-09 21:09:00.2720,1694311740.272122,-0.002837331732735038,-0.004882373381406069,0.0003531351685523987,-0.1582794189453125,0.0290069580078125,-0.9877166748046875,96.23646545410156,-23.987548828125,-41.43104553222656,2023-09-09 21:08:59.9560,1694311739.955857,0.004499861970543861,-0.013535580597817898,0.0006071719108149409,0.09609987586736679,0.410980224609375,-0.9059600830078125,
0,2023-09-09 21:08:47.2620,02:55,10,1,2023-09-09 21:09:00.3720,1694311740.372359,-0.002743322169408202,-0.0036075180396437645,-0.001961684552952647,-0.1578369140625,0.02801513671875,-0.9877166748046875,96.37127685546875,-24.091949462890625,-41.72747802734375,2023-09-09 21:09:00.0560,1694311740.055633,-0.01003833394497633,-0.00539216585457325,0.0005428565200418234,0.0891418531537056,0.3964233100414276,-0.9058532118797302,
0,2023-09-09 21:08:47.2620,02:55,10,1,2023-09-09 21:09:00.4720,1694311740.472249,-0.0007597998483106494,-0.0029145635198801756,-0.00253532943315804,-0.15863037109375,0.0298004150390625,-0.9886016845703125,96.35250854492188,-24.117111206054688,-41.62060546875,2023-09-09 21:09:00.1550,1694311740.155469,0.011206166818737984,0.0012323129922151566,0.008001871407032013,0.09255984425544739,0.4063873291015625,-0.9036712646484375,
0,2023-09-09 21:08:47.2620,02:55,10,1,2023-09-09 21:09:00.5720,1694311740.572408,-0.0020666129421442747,-0.006307164207100868,9.853695701167453e-06,-0.1574249267578125,0.028656005859375,-0.9872589111328125,96.26808166503906,-23.916213989257812,-41.53456115722656,2023-09-09 21:09:00.2550,1694311740.255208,0.02315583825111389,-0.0008267099037766457,0.007040835916996002,0.0930023342370987,0.4063110053539276,-0.905517578125,
0,2023-09-09 21:08:47.2620,02:55,10,1,2023-09-09 21:09:00.6720,1694311740.671922,-0.0013739247806370258,-0.005564675200730562,-0.0016969662392511964,-0.15753173828125,0.027984619140625,-0.9890289306640625,96.18138122558594,-23.754318237304688,-41.95143127441406,2023-09-09 21:09:00.3550,1694311740.355078,0.008941282518208027,-0.001118459738790989,0.0024987817741930485,0.09565737098455429,0.4095001220703125,-0.9062042236328125,
0,2023-09-09 21:08:47.2620,02:55,10,1,2023-09-09 21:09:00.7730,1694311740.7726278,-0.0007523429812863469,-0.0025220136158168316,-0.0038754320703446865,-0.158538818359375,0.0297088623046875,-0.9885101318359375,96.21922302246094,-23.73760986328125,-41.82472229003906,2023-09-09 21:09:00.4550,1694311740.454795,0.008054716512560844,-0.01394584123045206,-0.0038504605181515217,0.0926971510052681,0.3951873779296875,-0.9083251953125,
0,2023-09-09 21:08:47.2620,02:55,10,1,2023-09-09 21:09:00.8720,1694311740.872283,-0.001157143502496183,-0.005320996046066284,-0.005060805007815361,-0.15875244140625,0.028961181640625,-0.987640380859375,96.23274230957031,-24.092041015625,-41.586669921875,2023-09-09 21:09:00.5550,1694311740.55469,0.0050093913450837135,-0.007512708194553852,0.0038398164324462414,0.0940246731042862,0.4010009467601776,-0.9057159423828125,
0,2023-09-09 21:08:47.2620,02:55,10,1,2023-09-09 21:09:00.9730,1694311740.972999,-0.00199284334667027,-0.006560963578522205,-0.00236249016597867,-0.1587982177734375,0.027801513671875,-0.9875946044921875,96.28103637695312,-23.74090576171875,-41.68363952636719,2023-09-09 21:09:00.6550,1694311740.6545482,-0.008018992841243744,-0.009354418143630028,-0.0014058450469747186,0.0910034328699112,0.399688720703125,-0.9096527099609375,
0,2023-09-09 21:08:47.2620,02:55,10,1,2023-09-09 21:09:01.0730,1694311741.072582,-0.002995789982378483,-0.0027539748698472977,0.0003677825443446636,-0.157562255859375,0.026702880859375,-0.9895477294921875,96.38670349121094,-24.005615234375,-41.64653015136719,2023-09-09 21:09:00.7540,1694311740.754385,0.004017496947199106,-0.018040716648101807,0.009968881495296955,0.0935363918542862,0.4005279242992401,-0.918853759765625,
0,2023-09-09 21:08:47.2620,02:55,10,1,2023-09-09 21:09:01.1730,1694311741.17274,-0.0024104269687086344,-0.005671733990311623,-0.002558765234425664,-0.15771484375,0.0270233154296875,-0.9886322021484375,96.33984375,-24.0035400390625,-41.311920166015625,2023-09-09 21:09:00.8540,1694311740.854228,0.07824019342660904,0.007498198188841343,0.05057336762547493,0.09117128700017929,0.3922576606273651,-0.9100799560546875,
0,2023-09-09 21:08:47.2620,02:55,10,1,2023-09-09 21:09:01.2730,1694311741.2728372,-0.002261023735627532,-0.0027747475542128086,-0.0025358619168400764,-0.156982421875,0.0274658203125,-0.9893341064453125,96.50686645507812,-23.936996459960938,-41.755340576171875,2023-09-09 21:09:00.9540,1694311740.953881,0.24208872020244598,0.06093199551105499,0.140197291970253,0.07554628700017929,0.4506988227367401,-0.9069213271141052,
0,2023-09-09 21:08:47.2620,02:55,10,1,2023-09-09 21:09:01.3740,1694311741.3735561,-0.0027212179265916348,-0.004391818773001432,-0.0037950044497847557,-0.1584014892578125,0.027099609375,-0.987823486328125,96.23771667480469,-23.86993408203125,-41.66619873046875,2023-09-09 21:09:01.0540,1694311741.05393,0.24898982048034668,0.048871736973524094,0.1526910662651062,0.0748901441693306,0.4306640326976776,-0.9417876601219177,
0,2023-09-09 21:08:47.2620,02:55,10,1,2023-09-09 21:09:01.4730,1694311741.472888,-0.0006844323943369091,-0.0032083101104944944,-0.0019590212032198906,-0.1545867919921875,0.0293121337890625,-0.989044189453125,96.46061706542969,-23.952880859375,-41.53562927246094,2023-09-09 21:09:01.1540,1694311741.153651,0.24176375567913055,0.029368076473474503,0.1259479522705078,0.11262515187263489,0.3565673828125,-0.9374847412109375,
0,2023-09-09 21:08:47.2620,02:55,10,1,2023-09-09 21:09:01.5740,1694311741.573708,-0.0009289105655625463,-0.002251968951895833,-0.0026493126060813665,-0.1599884033203125,0.029754638671875,-0.9855804443359375,96.25416564941406,-23.871200561523438,-41.7635498046875,2023-09-09 21:09:01.2540,1694311741.253556,0.060630373656749725,0.011331153102219105,0.13047096133232117,0.1175689771771431,0.3177032172679901,-0.9312744140625,
0,2023-09-09 21:08:47.2620,02:55,10,1,2023-09-09 21:09:01.6740,1694311741.673502,-0.003683151677250862,-0.0029699571896344423,-0.0023728765081614256,-0.156646728515625,0.029693603515625,-0.9883270263671875,96.37911987304688,-24.22955322265625,-41.69561767578125,2023-09-09 21:09:01.3530,1694311741.353472,0.049839116632938385,-0.0191109087318182,0.07903127372264862,0.1171264797449112,0.3678588569164276,-0.9207763671875,
0,2023-09-09 21:08:47.2620,02:55,10,1,2023-09-09 21:09:01.7710,1694311741.7709532,3.462109452812001e-05,-0.004662395920604467,-0.001228516222909093,-0.156646728515625,0.029693603515625,-0.9883270263671875,96.278564453125,-24.041412353515625,-41.686370849609375,2023-09-09 21:09:01.4530,1694311741.4532661,-0.02063438482582569,-0.010589059442281723,0.0358058400452137,0.1290283352136612,0.3028869330883026,-0.9310302138328552,
0,2023-09-09 21:08:47.2620,02:55,10,1,2023-09-09 21:09:01.8740,1694311741.8739,-0.001609081868082285,-0.002055694116279483,-0.003578755771741271,-0.1574554443359375,0.029052734375,-0.9873504638671875,96.35348510742188,-23.86297607421875,-41.85162353515625,2023-09-09 21:09:01.5530,1694311741.553087,-0.06389757245779037,-0.04174644500017166,0.01752263866364956,0.11073305457830429,0.3263244330883026,-0.9286345839500427,
0,2023-09-09 21:08:47.2620,02:55,10,1,2023-09-09 21:09:01.9740,1694311741.973777,0.00034354778472334146,-0.0044136568903923035,-0.0030892668291926384,-0.1577606201171875,0.0277252197265625,-0.9889678955078125,96.22796630859375,-23.9022216796875,-41.56166076660156,2023-09-09 21:09:01.6530,1694311741.6528358,-0.18271204829216003,-0.14646713435649872,-0.051084816455841064,0.1342620998620987,0.365234375,-0.8632506728172302,
0,2023-09-09 21:08:47.2620,02:55,10,1,2023-09-09 21:09:02.0740,1694311742.073559,-0.0013651363551616669,-0.00478410255163908,-0.004805940669029951,-0.158233642578125,0.02825927734375,-0.9883880615234375,96.28163146972656,-23.728775024414062,-41.64323425292969,2023-09-09 21:09:01.7530,1694311741.752778,-0.17843705415725708,-0.13920588791370392,-0.11244594305753708,0.05096438527107239,0.306732177734375,-0.9251556396484375,
0,2023-09-09 21:08:47.2620,02:55,10,1,2023-09-09 21:09:02.1720,1694311742.1716762,0.0002980077115353197,-0.0007893609581515193,-0.002755040070042014,-0.157928466796875,0.02850341796875,-0.98834228515625,96.28410339355469,-23.962814331054688,-41.7579345703125,2023-09-09 21:09:01.8530,1694311741.852579,0.1473522186279297,-0.1922701746225357,-0.16031600534915924,0.07499697804450989,0.4209899604320526,-0.9277496337890625,
0,2023-09-09 21:08:47.2620,02:55,10,1,2023-09-09 21:09:02.2730,1694311742.272519,7.776429993100464e-05,-0.0024074974935501814,-0.00031079089967533946,-0.160125732421875,0.026641845703125,-0.987579345703125,96.19406127929688,-23.856781005859375,-41.65850830078125,2023-09-09 21:09:01.9520,1694311741.952393,0.17123684287071228,-0.3856102228164673,-0.05254003405570984,0.1479034684598446,0.377410888671875,-0.909210205078125,
0,2023-09-09 21:08:47.2620,02:55,10,1,2023-09-09 21:09:02.3700,1694311742.370153,7.776429993100464e-05,-0.0024074974935501814,-0.00031079089967533946,-0.15814208984375,0.02862548828125,-0.98919677734375,96.25975036621094,-23.867706298828125,-41.0673828125,2023-09-09 21:09:02.0520,1694311742.052177,-0.019223643466830254,-0.34033486247062683,-0.11305756866931915,-0.04203794151544571,0.3470611572265625,-0.9409027099609375,
0,2023-09-09 21:08:47.2620,02:55,10,1,2023-09-09 21:09:02.4720,1694311742.472064,-0.0027917916886508465,-0.003433879930526018,-0.00227806787006557,-0.1570892333984375,0.028167724609375,-0.987762451171875,96.29722595214844,-24.0672607421875,-41.49859619140625,2023-09-09 21:09:02.1520,1694311742.152039,-0.02390541322529316,-0.6070380806922913,-0.303832083940506,0.07600405812263489,0.356353759765625,-0.9908447861671448,
0,2023-09-09 21:08:47.2620,02:55,10,1,2023-09-09 21:09:02.5740,1694311742.574091,-0.0011938951211050153,-0.0022743395529687405,-0.0030988543294370174,-0.1580047607421875,0.0291900634765625,-0.9873199462890625,96.30111694335938,-23.94818115234375,-41.64849853515625,2023-09-09 21:09:02.2520,1694311742.2519,0.16769097745418549,-0.7943346500396729,-0.33932098746299744,-0.18379207700490952,0.4058379828929901,-0.9971770644187927,
0,2023-09-09 21:08:47.2620,02:55,10,1,2023-09-09 21:09:02.6740,1694311742.674042,-0.0006162554491311312,-0.005121258553117514,-0.003576359013095498,-0.1600189208984375,0.02972412109375,-0.98687744140625,96.34661865234375,-23.86370849609375,-41.7489013671875,2023-09-09 21:09:02.3520,1694311742.351668,-0.9037387371063232,-0.9491828680038452,-0.49209505319595337,-0.1841735541820526,0.3542937934398651,-0.8953094482421875,
0,2023-09-09 21:08:47.2620,02:55,10,1,2023-09-09 21:09:02.7740,1694311742.7744799,-0.0006162554491311312,-0.005121258553117514,-0.003576359013095498,-0.1565704345703125,0.0297088623046875,-0.9879302978515625,96.36770629882812,-23.863723754882812,-41.94456481933594,2023-09-09 21:09:02.4520,1694311742.4515119,-0.5427496433258057,-1.27092444896698,-0.6717287302017212,-0.4577941596508026,0.3025817573070526,-0.92584228515625,
0,2023-09-09 21:08:47.2620,02:55,10,1,2023-09-09 21:09:02.8740,1694311742.8743029,0.0005560680292546749,-0.00552233075723052,-0.0026700852904468775,-0.1578369140625,0.028167724609375,-0.9892730712890625,96.31597900390625,-23.909286499023438,-41.44776916503906,2023-09-09 21:09:02.5510,1694311742.551279,-0.37892043590545654,-1.0796347856521606,-0.7805353999137878,-0.3970336616039276,0.4517059326171875,-0.8588104844093323,
0,2023-09-09 21:08:47.2620,02:55,10,1,2023-09-09 21:09:02.9740,1694311742.9743428,-0.003668770659714937,-0.0033076461404561996,0.0002777676854748279,-0.1564788818359375,0.0275726318359375,-0.9889373779296875,96.29946899414062,-23.888290405273438,-41.67863464355469,2023-09-09 21:09:02.6510,1694311742.651075,-0.5564159750938416,-0.8864951729774475,-0.7514367699623108,-0.3118133544921875,0.39581298828125,-0.7673797607421875,
0,2023-09-09 21:08:47.2620,02:55,10,1,2023-09-09 21:09:03.0750,1694311743.074549,-0.002544117858633399,-0.005270129535347223,-0.003719637170433998,-0.1565399169921875,0.0272216796875,-0.9891357421875,96.35037231445312,-23.879531860351562,-41.72135925292969,2023-09-09 21:09:02.7510,1694311742.7508888,-0.3326297700405121,-0.921810507774353,-0.46706268191337585,-0.8052825331687927,0.3584441840648651,-0.598236083984375,
0,2023-09-09 21:08:47.2620,02:55,10,1,2023-09-09 21:09:03.1710,1694311743.170607,-0.0014767227694392204,-0.006685333326458931,-0.0011973571963608265,-0.156982421875,0.02716064453125,-0.9891815185546875,96.35037231445312,-23.879531860351562,-41.72135925292969,2023-09-09 21:09:02.8510,1694311742.850673,0.11169949173927307,-0.7340267896652222,-0.5265125036239624,-0.7357482314109802,0.3792572021484375,-0.6069641709327698,
0,2023-09-09 21:08:47.2620,02:55,10,1,2023-09-09 21:09:03.2740,1694311743.274375,-0.002694586291909218,-0.0052259210497140884,-0.0016112125013023615,-0.159698486328125,0.0284881591796875,-0.987579345703125,96.20069885253906,-23.83734130859375,-41.58686828613281,2023-09-09 21:09:02.9510,1694311742.950572,0.5432207584381104,-0.33233967423439026,-0.6103788614273071,-0.8079071044921875,0.2482147216796875,-0.5440674424171448,
0,2023-09-09 21:08:47.2620,02:55,10,1,2023-09-09 21:09:03.3750,1694311743.37469,-0.0020096213556826115,-0.0035052525345236063,-0.0015393070643767715,-0.158905029296875,0.029052734375,-0.987823486328125,96.20855712890625,-23.953231811523438,-41.98521423339844,2023-09-09 21:09:03.0500,1694311743.050185,0.3670719265937805,-0.06558306515216827,-0.552705705165863,-0.824356198310852,0.2532043755054474,-0.5525208115577698,
0,2023-09-09 21:08:47.2620,02:55,10,1,2023-09-09 21:09:03.4750,1694311743.4748058,-0.001070857048034668,-0.0057257963344454765,-0.0027438548859208822,-0.1590423583984375,0.0286407470703125,-0.98748779296875,96.27696228027344,-24.046600341796875,-41.89703369140625,2023-09-09 21:09:03.1500,1694311743.149994,0.46565788984298706,0.04899144917726517,-0.6062988638877869,-0.8247680068016052,0.1988983005285263,-0.5215758681297302,
0,2023-09-09 21:08:47.2620,02:55,10,1,2023-09-09 21:09:03.5750,1694311743.574887,0.0006578007596544921,-0.0017041567480191588,-0.002719087526202202,-0.158294677734375,0.0290679931640625,-0.987884521484375,96.25004577636719,-23.841842651367188,-41.62059020996094,2023-09-09 21:09:03.2500,1694311743.2499142,0.1981433629989624,-0.09966753423213959,-0.476279616355896,-0.800704836845398,0.1999969407916069,-0.548583984375,
0,2023-09-09 21:08:47.2620,02:55,10,1,2023-09-09 21:09:03.6750,1694311743.675123,0.0005701828049495816,-0.0032437301706522703,-0.004029362928122282,-0.15643310546875,0.02911376953125,-0.9886932373046875,96.287353515625,-24.01910400390625,-41.70184326171875,2023-09-09 21:09:03.3500,1694311743.349741,0.2069500982761383,-0.409246563911438,-0.58441561460495,-0.7672882080078125,0.009231582283973694,-0.5316162109375,
0,2023-09-09 21:08:47.2620,02:55,10,1,2023-09-09 21:09:03.7750,1694311743.775306,-0.0021377194207161665,-0.001731853699311614,-0.004806206561625004,-0.1573028564453125,0.027740478515625,-0.9886932373046875,96.50192260742188,-24.049148559570312,-41.49967956542969,2023-09-09 21:09:03.4500,1694311743.449595,-0.033153239637613297,-0.23334944248199463,-0.46552178263664246,-0.9224853515625,0.016830462031066418,-0.4625854790210724,
0,2023-09-09 21:08:47.2620,02:55,10,1,2023-09-09 21:09:03.8750,1694311743.87539,-0.0016136092599481344,-0.005634183529764414,-0.0022865901701152325,-0.158660888671875,0.0272064208984375,-0.988983154296875,96.44580078125,-23.919189453125,-41.6358642578125,2023-09-09 21:09:03.5490,1694311743.549312,-0.19661061465740204,0.017337379977107048,-0.6689209938049316,-0.8657988905906677,-0.005462629720568657,-0.4689789116382599,
0,2023-09-09 21:08:47.2620,02:55,10,1,2023-09-09 21:09:03.9750,1694311743.9752622,-0.0030605047941207886,-0.0010032127611339092,-0.0033281524665653706,-0.156494140625,0.0265045166015625,-0.98876953125,96.20526123046875,-23.694046020507812,-41.65400695800781,2023-09-09 21:09:03.6490,1694311743.649105,0.07445145398378372,0.05986659601330757,-0.49345138669013977,-0.8665313720703125,-0.1137847751379013,-0.5179748833179474,
0,2023-09-09 21:08:47.2620,02:55,10,1,2023-09-09 21:09:04.0750,1694311744.074726,-0.002808303339406848,-0.005597432143986225,-0.0010133327450603247,-0.157318115234375,0.027130126953125,-0.988128662109375,96.15548706054688,-23.869644165039062,-41.712646484375,2023-09-09 21:09:03.7490,1694311743.748976,-0.030833560973405838,0.12550127506256104,-0.43305933475494385,-0.8690797090530396,-0.2110290601849556,-0.48286423087120056,
0,2023-09-09 21:08:47.2620,02:55,10,1,2023-09-09 21:09:04.1710,1694311744.1712,-0.000606934423558414,-0.0037523938808590174,-0.0017382452497258782,-0.15716552734375,0.0263671875,-0.98779296875,96.2193603515625,-24.033004760742188,-41.2369384765625,2023-09-09 21:09:03.8490,1694311743.84874,0.04861299693584442,0.08078985661268234,-0.42254313826560974,-0.8323668837547302,-0.1473846286535263,-0.494293212890625,
0,2023-09-09 21:08:47.2620,02:55,10,1,2023-09-09 21:09:04.2750,1694311744.275329,0.0002937466779258102,-0.0025366609916090965,-0.005495965480804443,-0.1569061279296875,0.0287628173828125,-0.9889678955078125,96.26434326171875,-24.19036865234375,-41.42474365234375,2023-09-09 21:09:03.9490,1694311743.948519,0.061247099190950394,-0.04460041970014572,-0.5715847611427307,-0.806732177734375,-0.2039794772863388,-0.5388947129249573,
0,2023-09-09 21:08:47.2620,02:55,10,1,2023-09-09 21:09:04.3760,1694311744.375965,0.0002700445184018463,-0.003117762738838792,-0.0025624935515224934,-0.16058349609375,0.0294647216796875,-0.9871368408203125,96.23016357421875,-23.922012329101562,-41.41102600097656,2023-09-09 21:09:04.0480,1694311744.048322,-0.009604171849787235,-0.015058242715895176,-0.3687288165092468,-0.822540283203125,-0.2113036811351776,-0.5059815049171448,
0,2023-09-09 21:08:47.2620,02:55,10,1,2023-09-09 21:09:04.4760,1694311744.475568,0.00018322547839488834,-0.002966228872537613,-0.00192200334277004,-0.1571044921875,0.0294647216796875,-0.9881439208984375,96.33297729492188,-23.951751708984375,-41.72138977050781,2023-09-09 21:09:04.1480,1694311744.148112,0.07592078298330307,-0.02362176962196827,-0.2624698579311371,-0.8226013779640198,-0.266845703125,-0.5010986328125,
0,2023-09-09 21:08:47.2620,02:55,10,1,2023-09-09 21:09:04.5760,1694311744.5757442,-0.001865011639893055,-0.007863249629735947,-0.0019587550777941942,-0.1551361083984375,0.0305328369140625,-0.9886016845703125,96.23434448242188,-23.970138549804688,-41.46641540527344,2023-09-09 21:09:04.2480,1694311744.247937,-0.07280004769563675,0.05298791825771332,0.030269494280219078,-0.81378173828125,-0.3956298828125,-0.4779358506202698,
0,2023-09-09 21:08:47.2620,02:55,10,1,2023-09-09 21:09:04.6740,1694311744.6738858,-0.0020120181143283844,-0.004936435259878635,-0.003060770919546485,-0.157928466796875,0.028656005859375,-0.9882049560546875,96.30577087402344,-24.170928955078125,-41.66325378417969,2023-09-09 21:09:04.3480,1694311744.347917,-0.017942728474736214,0.028950626030564308,-0.005180875770747662,-0.8252410292625427,-0.2983703315258026,-0.4788665771484375,
0,2023-09-09 21:08:47.2620,02:55,10,1,2023-09-09 21:09:04.7730,1694311744.7732182,-0.0017116136150434613,-0.003023753175511956,-0.0028815402183681726,-0.15826416015625,0.0277862548828125,-0.98779296875,96.19696044921875,-24.140396118164062,-41.93194580078125,2023-09-09 21:09:04.4480,1694311744.447523,0.026554230600595474,0.0353522002696991,-0.0978890061378479,-0.8228302001953125,-0.2882842719554901,-0.4654083251953125,
0,2023-09-09 21:08:47.2620,02:55,10,1,2023-09-09 21:09:04.8760,1694311744.8764029,-0.0018330537714064121,-0.005602492019534111,-0.002644518855959177,-0.1548919677734375,0.0279998779296875,-0.9907073974609375,96.28504943847656,-24.231460571289062,-41.46122741699219,2023-09-09 21:09:04.5470,1694311744.54734,0.02272620238363743,-0.014024403877556324,-0.02920701541006565,-0.8109893798828125,-0.2499541938304901,-0.5084534287452698,
0,2023-09-09 21:08:47.2620,02:55,10,1,2023-09-09 21:09:04.9760,1694311744.97556,-0.002014148747548461,-0.004458930809050798,-0.000663393409922719,-0.15850830078125,0.0259246826171875,-0.98876953125,96.27304077148438,-24.076019287109375,-41.74327087402344,2023-09-09 21:09:04.6470,1694311744.6471472,0.008107513189315796,0.002788797952234745,-0.059746380895376205,-0.83740234375,-0.2995758056640625,-0.4870147705078125,
0,2023-09-09 21:08:47.2620,02:55,10,1,2023-09-09 21:09:05.0740,1694311745.073595,-0.0027569043450057507,-0.003210174385458231,-0.0014703312190249562,-0.1588134765625,0.0272369384765625,-0.9879608154296875,96.22018432617188,-24.259841918945312,-41.55426025390625,2023-09-09 21:09:04.7470,1694311744.746975,0.01683981902897358,-0.03472968190908432,-0.09792589396238327,-0.8147275447845459,-0.35929861664772034,-0.48024001717567444,
0,2023-09-09 21:08:47.2620,02:55,10,1,2023-09-09 21:09:05.1720,1694311745.1719708,-0.0011680624447762966,-0.004222441930323839,-0.005116731394082308,-0.1566619873046875,0.02740478515625,-0.989349365234375,96.28840637207031,-24.042205810546875,-41.377227783203125,2023-09-09 21:09:04.8470,1694311744.846843,0.05069931596517563,0.025793982669711113,-0.13994181156158447,-0.7871857285499573,-0.3312683403491974,-0.4878235459327698,
0,2023-09-09 21:08:47.2620,02:55,10,1,2023-09-09 21:09:05.2760,1694311745.276112,-0.0033723609521985054,-0.0018524948973208666,-0.002301770029589534,-0.158966064453125,0.0289459228515625,-0.9871673583984375,96.02902221679688,-23.997817993164062,-41.847900390625,2023-09-09 21:09:04.9470,1694311744.946626,0.07973162829875946,-0.021191369742155075,-0.02881603129208088,-0.80072021484375,-0.3231201171875,-0.5059662163257599,
0,2023-09-09 21:08:47.2620,02:55,10,1,2023-09-09 21:09:05.3760,1694311745.376042,-0.0021465078461915255,-0.004522580187767744,-0.0025244103744626045,-0.1605072021484375,0.03009033203125,-0.9874420166015625,96.24942016601562,-23.883819580078125,-41.322021484375,2023-09-09 21:09:05.0470,1694311745.046647,0.06487372517585754,0.01585080474615097,-0.07003424316644669,-0.806854248046875,-0.3192138075828552,-0.490936279296875,
0,2023-09-09 21:08:47.2620,02:55,10,1,2023-09-09 21:09:05.4760,1694311745.476215,-0.0015595471486449242,-0.003936418332159519,-0.004315918777137995,-0.1580810546875,0.0299072265625,-0.988800048828125,96.08641052246094,-24.007568359375,-41.82740783691406,2023-09-09 21:09:05.1460,1694311745.146402,-0.005230729468166828,0.08568381518125534,-0.026088787242770195,-0.8025206923484802,-0.3267059028148651,-0.4822540283203125,
0,2023-09-09 21:08:47.2620,02:55,10,1,2023-09-09 21:09:05.5760,1694311745.576474,-0.001583249308168888,-0.0029885992407798767,-0.0013382384786382318,-0.15924072265625,0.0288238525390625,-0.9871368408203125,95.98052978515625,-23.780838012695312,-41.726165771484375,2023-09-09 21:09:05.2460,1694311745.24605,0.0005505275912582874,0.08205698430538177,-0.059185124933719635,-0.8106688857078552,-0.3282775580883026,-0.4762420654296875,
0,2023-09-09 21:08:47.2620,02:55,10,1,2023-09-09 21:09:05.6760,1694311745.6763492,-0.003453587181866169,-0.003001915058121085,-0.004206196404993534,-0.1575775146484375,0.027923583984375,-0.98748779296875,96.11334228515625,-24.179000854492188,-41.90773010253906,2023-09-09 21:09:05.3460,1694311745.345892,0.03728916496038437,0.048758286982774734,-0.007018756587058306,-0.7795714139938354,-0.3437652289867401,-0.5162353813648224,
0,2023-09-09 21:08:47.2620,02:55,10,1,2023-09-09 21:09:05.7770,1694311745.776612,0.00041811628034338355,-0.00777749577537179,-0.002671150490641594,-0.157470703125,0.0275115966796875,-0.9878997802734375,96.12237548828125,-23.565200805664062,-41.80766296386719,2023-09-09 21:09:05.4460,1694311745.445654,-0.00618993304669857,0.07468482851982117,-0.010802808217704296,-0.806243896484375,-0.3726195991039276,-0.4849243760108948,
0,2023-09-09 21:08:47.2620,02:55,10,1,2023-09-09 21:09:05.8740,1694311745.874383,-0.0011209244839847088,-0.003644536016508937,-0.0011555455857887864,-0.1578369140625,0.0271759033203125,-0.9886322021484375,96.02742004394531,-23.689849853515625,-41.663604736328125,2023-09-09 21:09:05.5450,1694311745.5454478,0.002328520407900214,0.03959514573216438,0.00044075760524719954,-0.7879790663719177,-0.3430785536766052,-0.5126189589500427,
0,2023-09-09 21:08:47.2620,02:55,10,1,2023-09-09 21:09:05.9760,1694311745.976223,-0.0028280108235776424,-0.0028160265646874905,-0.0023451796732842922,-0.156982421875,0.02801513671875,-0.988494873046875,96.13845825195312,-24.031539916992188,-41.847808837890625,2023-09-09 21:09:05.6450,1694311745.64521,0.0061080120503902435,0.042413439601659775,-0.02306293696165085,-0.7899627089500427,-0.3616790473461151,-0.497528076171875,
0,2023-09-09 21:08:47.2620,02:55,10,1,2023-09-09 21:09:06.0770,1694311746.076577,-0.0007574030314572155,-0.004276237916201353,-0.004004328977316618,-0.1564788818359375,0.028228759765625,-0.98883056640625,96.12802124023438,-23.816268920898438,-41.39891052246094,2023-09-09 21:09:05.7450,1694311745.745106,0.01973673887550831,0.0033808182924985886,0.024003375321626663,-0.7733155488967896,-0.3571472465991974,-0.5053406357765198,
0,2023-09-09 21:08:47.2620,02:55,10,1,2023-09-09 21:09:06.1730,1694311746.172719,-0.0006708502769470215,-0.004234159830957651,-0.004611263517290354,-0.15765380859375,0.029022216796875,-0.987884521484375,96.313232421875,-24.075531005859375,-41.56880187988281,2023-09-09 21:09:05.8450,1694311745.844808,0.005696087144315243,0.013514013029634953,0.025085650384426117,-0.7870940566062927,-0.3652496039867401,-0.4914245009422302,
0,2023-09-09 21:08:47.2620,02:55,10,1,2023-09-09 21:09:06.2770,1694311746.276905,-0.0018663433147594333,-0.0041132522746920586,-0.003397128311917186,-0.1576080322265625,0.028045654296875,-0.9882354736328125,96.28811645507812,-23.871231079101562,-41.573944091796875,2023-09-09 21:09:05.9450,1694311745.944648,0.041747696697711945,0.004686965607106686,-0.008862130343914032,-0.7777710556983948,-0.3508148193359375,-0.5022125840187073,
0,2023-09-09 21:08:47.2620,02:55,10,1,2023-09-09 21:09:06.3770,1694311746.377362,0.0007877630414441228,-0.003567570587620139,-0.001609081868082285,-0.1589202880859375,0.0292205810546875,-0.98736572265625,96.26609802246094,-24.069198608398438,-41.745941162109375,2023-09-09 21:09:06.0450,1694311746.044574,0.01461181789636612,0.011353656649589539,-0.0006154520669952035,-0.7815551161766052,-0.3579558730125427,-0.51055908203125,
0,2023-09-09 21:08:47.2620,02:55,10,1,2023-09-09 21:09:06.4770,1694311746.476863,0.0003888215287588537,-0.00654525076970458,-0.0021781993564218283,-0.15771484375,0.0287933349609375,-0.985931396484375,96.38186645507812,-24.18109130859375,-41.75028991699219,2023-09-09 21:09:06.1440,1694311746.1443682,0.019265690818428993,0.001458415761590004,-0.0014661988243460655,-0.7797699570655823,-0.347320556640625,-0.5179749131202698,
0,2023-09-09 21:08:47.2620,02:55,10,1,2023-09-09 21:09:06.5770,1694311746.577147,-0.0004207794554531574,-0.005818740464746952,-0.0011408982099965215,-0.1564483642578125,0.0279083251953125,-0.987884521484375,96.11129760742188,-23.704147338867188,-41.87648010253906,2023-09-09 21:09:06.2440,1694311746.2439451,-0.011635031551122665,0.007596336305141449,-0.001639537513256073,-0.7807464599609375,-0.3811797797679901,-0.5002747178077698,
0,2023-09-09 21:08:47.2620,02:55,10,1,2023-09-09 21:09:06.6760,1694311746.676313,-0.00022290658671408892,-0.0031904669012874365,-0.00333241350017488,-0.157958984375,0.0282745361328125,-0.9886016845703125,96.22506713867188,-24.045822143554688,-41.63531494140625,2023-09-09 21:09:06.3440,1694311746.343946,0.009512131102383137,-0.008174504153430462,-0.02676183544099331,-0.7686767578125,-0.3817901313304901,-0.503021240234375,
0,2023-09-09 21:08:47.2620,02:55,10,1,2023-09-09 21:09:06.7770,1694311746.7770882,-0.0031196267809718847,-0.004067179746925831,-0.0019654128700494766,-0.156463623046875,0.0284881591796875,-0.9894866943359375,96.08573913574219,-23.984222412109375,-41.8033447265625,2023-09-09 21:09:06.4440,1694311746.4439502,0.0034984471276402473,0.0010600066743791103,-0.0029679553117603064,-0.7800750136375427,-0.372650146484375,-0.5033722519874573,
0,2023-09-09 21:08:47.2620,02:55,10,1,2023-09-09 21:09:06.8770,1694311746.877188,-0.002600576728582382,-0.003632551757618785,-0.0027561055030673742,-0.1585693359375,0.0275115966796875,-0.987548828125,96.39071655273438,-24.083038330078125,-41.66815185546875,2023-09-09 21:09:06.5430,1694311746.5434508,0.008616643026471138,0.0010110046714544296,0.00103457598015666,-0.7771148085594177,-0.376007080078125,-0.5073699951171875,
0,2023-09-09 21:08:47.2620,02:55,10,1,2023-09-09 21:09:06.9770,1694311746.97711,-0.002385659608989954,-0.003995540551841259,-0.001740375766530633,-0.158172607421875,0.0278472900390625,-0.98797607421875,96.37309265136719,-24.102996826171875,-41.46696472167969,2023-09-09 21:09:06.6430,1694311746.6432781,0.0071700140833854675,0.003264038823544979,0.00712935347110033,-0.7782745361328125,-0.3659362494945526,-0.5039215087890625,
0,2023-09-09 21:08:47.2620,02:55,10,1,2023-09-09 21:09:07.0770,1694311747.077172,-0.0017214673571288586,-0.0047148605808615685,-0.0017869811272248626,-0.1575469970703125,0.02935791015625,-0.986602783203125,96.20402526855469,-23.835205078125,-42.01922607421875,2023-09-09 21:09:06.7430,1694311746.742995,-0.003937232308089733,0.008213790133595467,0.018576551228761673,-0.7776030898094177,-0.3850860297679901,-0.5030517578125,
0,2023-09-09 21:08:47.2620,02:55,10,1,2023-09-09 21:09:07.1730,1694311747.1734118,-0.002499643014743924,-0.0035356127191334963,-0.000844754686113447,-0.158203125,0.0276031494140625,-0.987213134765625,96.19326782226562,-24.099288940429688,-41.64776611328125,2023-09-09 21:09:06.8430,1694311746.842979,0.014986058697104454,0.006520951632410288,0.005556523334234953,-0.771148681640625,-0.3681640625,-0.5108185410499573,
0,2023-09-09 21:08:47.2620,02:55,10,1,2023-09-09 21:09:07.2780,1694311747.2777572,-0.0014674017438665032,-0.004081294406205416,0.00044288369826972485,-0.1571502685546875,0.027557373046875,-0.9888458251953125,96.27044677734375,-24.054550170898438,-41.536712646484375,2023-09-09 21:09:06.9430,1694311746.942816,0.01197934988886118,0.006825883407145739,-0.0059713684022426605,-0.7691497206687927,-0.3668060004711151,-0.5100708603858948,
0,2023-09-09 21:08:47.2620,02:55,10,1,2023-09-09 21:09:07.3770,1694311747.377274,0.00010972223390126601,-0.004013383761048317,-0.0010388991795480251,-0.1580352783203125,0.02734375,-0.9883270263671875,96.31394958496094,-24.08251953125,-41.53138732910156,2023-09-09 21:09:07.0450,1694311747.0453792,0.007831809110939503,0.0021260702051222324,0.0004429547116160393,-0.7749938368797302,-0.362335205078125,-0.50640869140625,
0,2023-09-09 21:08:47.2620,02:55,10,1,2023-09-09 21:09:07.4760,1694311747.476071,-0.0036751623265445232,-0.005139900837093592,-0.002945456188172102,-0.158294677734375,0.02777099609375,-0.9881744384765625,96.26786804199219,-24.220993041992188,-41.18003845214844,2023-09-09 21:09:07.1420,1694311747.142457,0.009191286750137806,1.9643455743789673e-05,-0.01953205093741417,-0.7724609375,-0.36334228515625,-0.5019683837890625,
0,2023-09-09 21:08:47.2620,02:55,10,1,2023-09-09 21:09:07.5750,1694311747.5745258,-0.0009853695519268513,-0.0043867588974535465,-0.0018423747969791293,-0.1580352783203125,0.0296173095703125,-0.98870849609375,96.28034973144531,-24.053070068359375,-41.397003173828125,2023-09-09 21:09:07.2420,1694311747.242165,0.01189266424626112,0.003325690981000662,-0.022312989458441734,-0.7766876220703125,-0.366790771484375,-0.50897216796875,
0,2023-09-09 21:08:47.2620,02:55,10,1,2023-09-09 21:09:07.6780,1694311747.677627,-0.003032541600987315,-0.0041558630764484406,0.0002623213513288647,-0.1579132080078125,0.02923583984375,-0.9882965087890625,96.25489807128906,-24.15020751953125,-42.01033020019531,2023-09-09 21:09:07.3420,1694311747.3421268,0.02443615347146988,-0.007375156506896019,-0.011210539378225803,-0.7685088515281677,-0.3670959174633026,-0.5128021836280823,
0,2023-09-09 21:08:47.2620,02:55,10,1,2023-09-09 21:09:07.7780,1694311747.777544,-0.001615207176655531,-0.00461579067632556,-0.001255414099432528,-0.1584320068359375,0.029052734375,-0.98785400390625,96.22023010253906,-23.8603515625,-41.46783447265625,2023-09-09 21:09:07.4420,1694311747.441807,0.0271647609770298,-0.013289903290569782,-0.0030985167250037193,-0.7775115370750427,-0.3762664496898651,-0.5171356201171875,
0,2023-09-09 21:08:47.2620,02:55,10,1,2023-09-09 21:09:07.8750,1694311747.874593,0.0015579492319375277,-0.005434446502476931,-0.002882871776819229,-0.1571807861328125,0.0279083251953125,-0.988006591796875,96.25462341308594,-24.114425659179688,-41.81169128417969,2023-09-09 21:09:07.5420,1694311747.541635,0.009186825715005398,0.0006418903358280659,-0.027706924825906754,-0.7751465439796448,-0.357666015625,-0.5025330781936646,
0,2023-09-09 21:08:47.2620,02:55,10,1,2023-09-09 21:09:07.9770,1694311747.9767818,-0.00101120222825557,-0.0030149647500365973,-0.001799764228053391,-0.157623291015625,0.0288543701171875,-0.9873504638671875,96.21080017089844,-24.203750610351562,-41.80781555175781,2023-09-09 21:09:07.6410,1694311747.64148,-0.012329917401075363,0.02206515707075596,0.003247396554797888,-0.7658995985984802,-0.39361572265625,-0.5025025010108948,
0,2023-09-09 21:08:47.2620,02:55,10,1,2023-09-09 21:09:08.0780,1694311748.077845,-0.0036485306918621063,-0.006333529483526945,-0.002350239548832178,-0.1588287353515625,0.027618408203125,-0.9881439208984375,96.2852783203125,-24.27325439453125,-41.85272216796875,2023-09-09 21:09:07.7410,1694311747.741164,0.005989967379719019,0.012235429137945175,-0.006340648978948593,-0.7692413330078125,-0.3725433051586151,-0.508575439453125,
0,2023-09-09 21:08:47.2620,02:55,10,1,2023-09-09 21:09:08.1740,1694311748.1740022,-0.0014303837670013309,-0.002141980454325676,-0.003555053612217307,-0.157745361328125,0.02783203125,-0.9892578125,96.27975463867188,-24.205963134765625,-41.24201965332031,2023-09-09 21:09:07.8410,1694311747.840907,-0.0015139549504965544,-0.001322324387729168,0.006013721693307161,-0.7675780653953552,-0.3805083930492401,-0.5111693739891052,
0,2023-09-09 21:08:47.2620,02:55,10,1,2023-09-09 21:09:08.2790,1694311748.278801,-0.002305764937773347,-0.00603498937562108,-0.0020333235152065754,-0.158203125,0.0256805419921875,-0.9885406494140625,96.37251281738281,-24.297897338867188,-41.77764892578125,2023-09-09 21:09:07.9410,1694311747.940932,-0.007176234852522612,0.007372364401817322,-0.0032132656779140234,-0.7759703397750854,-0.3704070746898651,-0.5105132460594177,
0,2023-09-09 21:08:47.2620,02:55,10,1,2023-09-09 21:09:08.3790,1694311748.378659,-0.0021054951939731836,-0.003084206720814109,-0.0014998923288658261,-0.159393310546875,0.0277862548828125,-0.988616943359375,96.08349609375,-24.189132690429688,-41.501983642578125,2023-09-09 21:09:08.0410,1694311748.041463,0.001066381810232997,0.0017999662086367607,-0.01582912541925907,-0.7744750380516052,-0.3600616455078125,-0.505340576171875,
0,2023-09-09 21:08:47.2620,02:55,10,1,2023-09-09 21:09:08.4780,1694311748.4782162,-0.0018820558907464147,-0.0015656723408028483,-0.0026903252582997084,-0.1582794189453125,0.02838134765625,-0.9876708984375,96.12738037109375,-24.079391479492188,-42.01936340332031,2023-09-09 21:09:08.1410,1694311748.140528,0.00754818320274353,0.0040105232037603855,-0.0024905172176659107,-0.777923583984375,-0.3821563422679901,-0.5000762939453125,
0,2023-09-09 21:08:47.2620,02:55,10,1,2023-09-09 21:09:08.5780,1694311748.578487,0.00023755396250635386,-0.0040946099907159805,-0.0025031049735844135,-0.158172607421875,0.02880859375,-0.988616943359375,96.14813232421875,-23.843704223632812,-41.748199462890625,2023-09-09 21:09:08.2400,1694311748.240298,0.0385737419128418,-0.014794058166444302,-0.02001478150486946,-0.765472412109375,-0.3775176703929901,-0.5069885849952698,
0,2023-09-09 21:08:47.2620,02:55,10,1,2023-09-09 21:09:08.6780,1694311748.678097,-0.0021758025977760553,-0.004907939583063126,-0.0022309301421046257,-0.1573028564453125,0.0281219482421875,-0.98663330078125,96.22744750976562,-23.970840454101562,-42.183563232421875,2023-09-09 21:09:08.3400,1694311748.340148,0.008661850355565548,0.007376092951744795,-0.018214453011751175,-0.7702789306640625,-0.3833160400390625,-0.5055084228515625,
0,2023-09-09 21:08:47.2620,02:55,10,1,2023-09-09 21:09:08.7780,1694311748.777865,-0.0021947110071778297,-0.005850432440638542,-0.003328684950247407,-0.15802001953125,0.027099609375,-0.98883056640625,96.12109375,-24.060302734375,-41.62733459472656,2023-09-09 21:09:08.4400,1694311748.439855,0.031889475882053375,-0.011523430235683918,-0.010223404504358768,-0.7652892470359802,-0.379638671875,-0.516387939453125,
0,2023-09-09 21:08:47.2620,02:55,10,1,2023-09-09 21:09:08.8790,1694311748.878897,0.0002615224220789969,-0.005062669049948454,-0.0008942894637584686,-0.1578369140625,0.0269775390625,-0.9887237548828125,96.4105224609375,-24.211151123046875,-41.67291259765625,2023-09-09 21:09:08.5400,1694311748.539624,-0.013279933482408524,0.002512361854314804,0.007294635754078627,-0.7725676894187927,-0.3874206244945526,-0.5036468505859375,
0,2023-09-09 21:08:47.2620,02:55,10,1,2023-09-09 21:09:08.9780,1694311748.978342,-0.0004362257895991206,-0.005030977539718151,-0.0007427555974572897,-0.158172607421875,0.026885986328125,-0.988861083984375,96.29545593261719,-24.172714233398438,-41.612579345703125,2023-09-09 21:09:08.6400,1694311748.639555,0.0015938873402774334,-0.002374938689172268,-0.004550605546683073,-0.7683867812156677,-0.3894957900047302,-0.500762939453125,
0,2023-09-09 21:08:47.2620,02:55,10,1,2023-09-09 21:09:09.0780,1694311749.078393,-0.0010032127611339092,-0.005131645128130913,-0.0018556906143203378,-0.1577606201171875,0.0267333984375,-0.9884185791015625,96.21147155761719,-23.923675537109375,-41.631072998046875,2023-09-09 21:09:08.7390,1694311748.739254,0.0001618389505892992,0.0003040684387087822,0.011574734933674335,-0.7656859755516052,-0.3866729140281677,-0.5028685927391052,
0,2023-09-09 21:08:47.2620,02:55,10,1,2023-09-09 21:09:09.1750,1694311749.175425,-0.0023987090680748224,-0.005314604379236698,-0.0020274645648896694,-0.1587677001953125,0.02728271484375,-0.9877777099609375,96.09199523925781,-23.989471435546875,-42.04142761230469,2023-09-09 21:09:08.8390,1694311748.8392959,0.02697600983083248,-0.026178672909736633,0.008412164635956287,-0.7625580430030823,-0.3687897324562073,-0.5114747285842896,
0,2023-09-09 21:08:47.2620,02:55,10,1,2023-09-09 21:09:09.2780,1694311749.27828,-0.0008671252289786935,-0.004688494838774204,-0.002103098202496767,-0.1575927734375,0.0270843505859375,-0.988739013671875,96.24964904785156,-23.96044921875,-41.71174621582031,2023-09-09 21:09:08.9390,1694311748.938906,-0.01831044629216194,0.0005548056215047836,0.015166173689067364,-0.7775421142578125,-0.40411376953125,-0.4944000840187073,
0,2023-09-09 21:08:47.2620,02:55,10,1,2023-09-09 21:09:09.3790,1694311749.379122,-9.906959166983142e-05,-0.005402222275733948,-0.004815794061869383,-0.1585540771484375,0.027923583984375,-0.9885711669921875,96.08526611328125,-23.94110107421875,-41.884307861328125,2023-09-09 21:09:09.0400,1694311749.039573,0.016776302829384804,-0.008384360931813717,0.009938056580722332,-0.770416259765625,-0.374603271484375,-0.5019073486328125,
0,2023-09-09 21:08:47.2620,02:55,10,1,2023-09-09 21:09:09.4780,1694311749.4782581,-0.0011001517996191978,-0.005415804218500853,-0.001614940818399191,-0.1581878662109375,0.0270233154296875,-0.9882354736328125,96.19606018066406,-23.8365478515625,-41.61799621582031,2023-09-09 21:09:09.1390,1694311749.138763,-0.0011269310489296913,-0.0002713073045015335,-0.004639755003154278,-0.7754058241844177,-0.3851775825023651,-0.4956207275390625,
0,2023-09-09 21:08:47.2620,02:55,10,1,2023-09-09 21:09:09.5790,1694311749.579164,-0.002356631215661764,-0.0032621060963720083,-0.0021065603941679,-0.157989501953125,0.0280609130859375,-0.9892120361328125,96.22344970703125,-23.797927856445312,-41.865936279296875,2023-09-09 21:09:09.2380,1694311749.238418,0.008568639867007732,0.0037752329371869564,-0.010018174536526203,-0.7758484482765198,-0.3968963921070099,-0.5008087754249573,
0,2023-09-09 21:08:47.2620,02:55,10,1,2023-09-09 21:09:09.6790,1694311749.6786551,-0.005113801918923855,-0.0060088904574513435,-0.004492486361414194,-0.1574859619140625,0.027862548828125,-0.988006591796875,96.22586059570312,-23.976272583007812,-41.739715576171875,2023-09-09 21:09:09.3380,1694311749.338335,0.06315451860427856,-0.028357669711112976,-0.014487424865365028,-0.7612762451171875,-0.3789214789867401,-0.4997711181640625,
0,2023-09-09 21:08:47.2620,02:55,10,1,2023-09-09 21:09:09.7790,1694311749.7787309,-0.0008586031035520136,-0.005628590937703848,-0.0034437335561960936,-0.1593017578125,0.027862548828125,-0.9879913330078125,96.12060546875,-23.9517822265625,-41.8470458984375,2023-09-09 21:09:09.4380,1694311749.438139,0.010844843462109566,-0.005870204418897629,-0.009684881195425987,-0.7744293212890625,-0.399688720703125,-0.4917297661304474,
0,2023-09-09 21:08:47.2620,02:55,10,1,2023-09-09 21:09:09.8760,1694311749.876025,0.00020293287525419146,-0.0027561055030673742,-0.0036133769899606705,-0.1595611572265625,0.0282440185546875,-0.987335205078125,96.03675842285156,-24.013198852539062,-41.34361267089844,2023-09-09 21:09:09.5380,1694311749.537809,-0.013234193436801434,0.005486180540174246,0.01312699168920517,-0.7649077773094177,-0.3852081000804901,-0.4985657036304474,
0,2023-09-09 21:08:47.2620,02:55,10,1,2023-09-09 21:09:09.9790,1694311749.978554,-0.0017278589075431228,-0.0032293491531163454,0.00010466222738614306,-0.1581573486328125,0.029205322265625,-0.9886322021484375,96.2208251953125,-23.779739379882812,-41.81988525390625,2023-09-09 21:09:09.6380,1694311749.637645,0.0010803632903844118,0.004345415160059929,-0.018317384645342827,-0.7825469970703125,-0.3925323188304901,-0.5003814697265625,
0,2023-09-09 21:08:47.2620,02:55,10,1,2023-09-09 21:09:10.0770,1694311750.077215,-0.0034551850985735655,-0.004250138532370329,-0.0012985573848709464,-0.1574249267578125,0.0282745361328125,-0.9878082275390625,96.29434204101562,-24.091262817382812,-41.72462463378906,2023-09-09 21:09:09.7370,1694311749.737437,0.018399232998490334,-0.009119394235312939,0.002411163877695799,-0.7690581679344177,-0.37127685546875,-0.5037994384765625,
0,2023-09-09 21:08:47.2620,02:55,10,1,2023-09-09 21:09:10.1750,1694311750.1747642,-0.002329200739040971,-0.0031273500062525272,-0.001264202524907887,-0.156982421875,0.027191162109375,-0.9882049560546875,96.21525573730469,-23.893203735351562,-41.53228759765625,2023-09-09 21:09:09.8370,1694311749.837418,-0.013592389412224293,0.007951201871037483,-0.012265583500266075,-0.7769775390625,-0.3991546332836151,-0.495330810546875,
0,2023-09-09 21:08:47.2620,02:55,10,1,2023-09-09 21:09:10.2790,1694311750.279083,-0.0012785836588591337,-0.0017427726415917277,-0.003471430391073227,-0.156463623046875,0.02874755859375,-0.9889984130859375,96.23454284667969,-23.923049926757812,-41.6824951171875,2023-09-09 21:09:09.9370,1694311749.937104,0.034076061099767685,0.001173457596451044,-0.003463969100266695,-0.7762908935546875,-0.3865966796875,-0.4965972900390625,
0,2023-09-09 21:08:47.2620,02:55,10,1,2023-09-09 21:09:10.3810,1694311750.381278,-0.00023409185814671218,-0.005886917468160391,-0.0019108180422335863,-0.1575927734375,0.028717041015625,-0.987030029296875,96.24208068847656,-23.994857788085938,-41.455169677734375,2023-09-09 21:09:10.0370,1694311750.0370522,0.02779999189078808,-0.0032437946647405624,-0.005946667864918709,-0.7722930312156677,-0.3822479248046875,-0.5061187744140625,
0,2023-09-09 21:08:47.2620,02:55,10,1,2023-09-09 21:09:10.4790,1694311750.479166,-0.002685531508177519,-0.0023401195649057627,-0.001975266495719552,-0.1589813232421875,0.0274658203125,-0.9879302978515625,96.21717834472656,-23.8048095703125,-41.68785095214844,2023-09-09 21:09:10.1370,1694311750.136769,-0.0023091083858162165,0.006517089903354645,-0.023657921701669693,-0.768218994140625,-0.3747711181640625,-0.5043640732765198,
0,2023-09-09 21:08:47.2620,02:55,10,1,2023-09-09 21:09:10.5790,1694311750.579144,-0.0024466461036354303,-0.004542287439107895,-0.002793922321870923,-0.1588592529296875,0.028289794921875,-0.9886627197265625,96.24398803710938,-24.06439208984375,-41.586578369140625,2023-09-09 21:09:10.2360,1694311750.2364311,-0.0019302736036479473,0.008240421302616596,-0.004077361896634102,-0.7710723876953125,-0.384613037109375,-0.4996337890625,
0,2023-09-09 21:08:47.2620,02:55,10,1,2023-09-09 21:09:10.6800,1694311750.679781,-0.0005547364708036184,-0.004637628793716431,-0.004434429574757814,-0.1585845947265625,0.0289154052734375,-0.98785400390625,96.20973205566406,-23.7540283203125,-41.81730651855469,2023-09-09 21:09:10.3360,1694311750.3362641,-0.003064580261707306,0.005821606144309044,-0.0036518883425742388,-0.7647094130516052,-0.3858184814453125,-0.4967194199562073,
0,2023-09-09 21:08:47.2620,02:55,10,1,2023-09-09 21:09:10.7790,1694311750.779366,-0.0003653856983873993,-0.0024530377704650164,-0.0021017666440457106,-0.1578216552734375,0.02935791015625,-0.9881134033203125,96.15242004394531,-23.658920288085938,-41.63926696777344,2023-09-09 21:09:10.4360,1694311750.4363031,0.013224311172962189,0.0025575021281838417,-0.009667536243796349,-0.75347900390625,-0.3963622748851776,-0.502410888671875,
0,2023-09-09 21:08:47.2620,02:55,10,1,2023-09-09 21:09:10.8790,1694311750.879391,-0.0013811152894049883,-0.004218979738652706,-0.0036962011363357306,-0.158538818359375,0.0297393798828125,-0.98773193359375,96.17947387695312,-23.7943115234375,-41.734710693359375,2023-09-09 21:09:10.5360,1694311750.536166,-0.0048500304110348225,0.004726913291960955,0.0014815209433436394,-0.7547912001609802,-0.3955993354320526,-0.5046386122703552,
0,2023-09-09 21:08:47.2620,02:55,10,1,2023-09-09 21:09:10.9790,1694311750.9790149,-0.003323625074699521,-0.00344586418941617,-0.0004423510399647057,-0.1574859619140625,0.02899169921875,-0.9896087646484375,96.12808227539062,-23.8145751953125,-41.99983215332031,2023-09-09 21:09:10.6360,1694311750.635823,0.03415229544043541,-0.009528055787086487,-0.0009976490400731564,-0.766387939453125,-0.3739776313304901,-0.5027771592140198,
0,2023-09-09 21:08:47.2620,02:55,10,1,2023-09-09 21:09:11.0790,1694311751.079068,-0.0036538569256663322,-0.004308728501200676,-0.00010572749306447804,-0.1587066650390625,0.0282135009765625,-0.9878692626953125,96.10633850097656,-24.013534545898438,-42.08418273925781,2023-09-09 21:09:10.7360,1694311750.7356791,0.009742295369505882,-0.0002765003591775894,0.0014978661201894283,-0.7642669677734375,-0.3952484130859375,-0.5048370361328125,
0,2023-09-09 21:08:47.2620,02:55,10,1,2023-09-09 21:09:11.1750,1694311751.175377,-0.0007408913807012141,-0.006536995060741901,-0.0024953819811344147,-0.1584625244140625,0.029144287109375,-0.988555908203125,96.31715393066406,-23.983139038085938,-41.022674560546875,2023-09-09 21:09:10.8360,1694311750.83551,-0.00429489417001605,-0.000184754841029644,-0.0032957240473479033,-0.7636871933937073,-0.3830261826515198,-0.5094605088233948,
0,2023-09-09 21:08:47.2620,02:55,10,1,2023-09-09 21:09:11.2790,1694311751.279027,-0.0007270429632626474,-0.004539357963949442,-0.004866127856075764,-0.1570892333984375,0.0287017822265625,-0.9881134033203125,96.22296142578125,-23.7593994140625,-41.89143371582031,2023-09-09 21:09:10.9350,1694311750.9353461,-0.009176535531878471,0.0026071700267493725,0.0014612475642934442,-0.764968752861023,-0.3813323676586151,-0.5021514892578125,
0,2023-09-09 21:08:47.2620,02:55,10,1,2023-09-09 21:09:11.3800,1694311751.3795362,-0.0017933726776391268,-0.0032535837963223457,-0.002138784620910883,-0.15826416015625,0.0271453857421875,-0.987060546875,96.23895263671875,-23.944000244140625,-42.001190185546875,2023-09-09 21:09:11.0380,1694311751.037856,0.010500229895114899,-0.005806555040180683,-0.006172437220811844,-0.7705078125,-0.3975372314453125,-0.5039063096046448,
0,2023-09-09 21:08:47.2620,02:55,10,1,2023-09-09 21:09:11.4800,1694311751.47958,0.0005430185701698065,-0.004202734678983688,-0.002389654517173767,-0.1570892333984375,0.0281829833984375,-0.9897003173828125,96.10848999023438,-23.78265380859375,-42.07536315917969,2023-09-09 21:09:11.1350,1694311751.135083,0.012558188289403915,0.0010329759679734707,0.0015860832063481212,-0.7710723876953125,-0.3815459907054901,-0.50732421875,
0,2023-09-09 21:08:47.2620,02:55,10,1,2023-09-09 21:09:11.5790,1694311751.578949,-0.0006319681415334344,-0.005643771030008793,-0.0011448930017650127,-0.1585540771484375,0.027862548828125,-0.988433837890625,96.20603942871094,-24.101974487304688,-42.27708435058594,2023-09-09 21:09:11.2350,1694311751.234864,0.01421427447348833,-0.007647065445780754,-0.004476802423596382,-0.768096923828125,-0.3893279731273651,-0.5059661865234375,
0,2023-09-09 21:08:47.2620,02:55,10,1,2023-09-09 21:09:11.6800,1694311751.679611,-0.0031321437563747168,-0.0031462584156543016,8.388957212446257e-05,-0.1584320068359375,0.0278778076171875,-0.9879608154296875,96.04794311523438,-23.793136596679688,-41.91099548339844,2023-09-09 21:09:11.3350,1694311751.334536,-0.00040534744039177895,0.007577294483780861,-0.010771217755973339,-0.7593231201171875,-0.3914489448070526,-0.5055695176124573,
0,2023-09-09 21:08:47.2620,02:55,10,1,2023-09-09 21:09:11.7770,1694311751.7766109,1.864212754298933e-05,-0.0044168527238070965,-0.0025632926262915134,-0.157623291015625,0.02789306640625,-0.9883575439453125,96.12062072753906,-24.100189208984375,-42.08222961425781,2023-09-09 21:09:11.4340,1694311751.434442,-0.007850347086787224,0.012440226972103119,-0.023206913843750954,-0.7662200927734375,-0.3864593207836151,-0.4963531494140625,
0,2023-09-09 21:08:47.2620,02:55,10,1,2023-09-09 21:09:11.8800,1694311751.879669,-2.7164242055732757e-05,-0.002907106652855873,-0.001091896090656519,-0.157379150390625,0.0275726318359375,-0.989013671875,96.23387145996094,-23.93878173828125,-41.77033996582031,2023-09-09 21:09:11.5340,1694311751.5342,-0.012898368760943413,0.007757057901471853,-0.017131444066762924,-0.7662505507469177,-0.3914642333984375,-0.5018311142921448,
0,2023-09-09 21:08:47.2620,02:55,10,1,2023-09-09 21:09:11.9790,1694311751.978755,-0.000859934720210731,-0.0057164751924574375,-0.002092179376631975,-0.1573486328125,0.02703857421875,-0.9888916015625,96.24836730957031,-24.014190673828125,-41.47611999511719,2023-09-09 21:09:11.6340,1694311751.634021,-0.007823183201253414,0.006962370593100786,0.004888636060059071,-0.7654570937156677,-0.3944854736328125,-0.5011444091796875,
0,2023-09-09 21:08:47.2620,02:55,10,1,2023-09-09 21:09:12.0800,1694311752.079619,0.0013225257862359285,-0.003329484025016427,-0.004637362435460091,-0.1607818603515625,0.02777099609375,-0.9872283935546875,96.0384521484375,-23.702178955078125,-41.809295654296875,2023-09-09 21:09:11.7340,1694311751.733803,0.0362035296857357,-0.025387313216924667,0.00394021812826395,-0.7684783339500427,-0.3992309272289276,-0.4969025254249573,
0,2023-09-09 21:08:47.2620,02:55,10,1,2023-09-09 21:09:12.1810,1694311752.1805758,0.0011528824688866735,-0.004466387443244457,-0.005542837083339691,-0.1570892333984375,0.027191162109375,-0.988372802734375,96.289794921875,-24.133392333984375,-41.30145263671875,2023-09-09 21:09:11.8340,1694311751.8336349,0.02059713937342167,-0.01661938801407814,0.004831044934689999,-0.7649689316749573,-0.4058533012866974,-0.5001831650733948,
0,2023-09-09 21:08:47.2620,02:55,10,1,2023-09-09 21:09:12.2790,1694311752.279391,0.00024527712957933545,-0.006712497677654028,-0.004229099955409765,-0.1591644287109375,0.028900146484375,-0.98748779296875,96.24467468261719,-23.85223388671875,-41.48631286621094,2023-09-09 21:09:11.9340,1694311751.933569,0.0037715542130172253,-0.012018776498734951,-0.0073298802599310875,-0.7666777968406677,-0.3951873481273651,-0.5090485215187073,
0,2023-09-09 21:08:47.2620,02:55,10,1,2023-09-09 21:09:12.3800,1694311752.379889,-0.003347327234223485,-0.006976683158427477,-0.003754524514079094,-0.1574554443359375,0.0279693603515625,-0.989166259765625,96.22309875488281,-23.790756225585938,-41.60572814941406,2023-09-09 21:09:12.0330,1694311752.0332541,-0.00644533010199666,-0.004902677610516548,-0.014360259287059307,-0.7707824110984802,-0.3939666450023651,-0.4927215576171875,
0,2023-09-09 21:08:47.2620,02:55,10,1,2023-09-09 21:09:12.4800,1694311752.479566,-0.0009081379394046962,-0.003582484321668744,-0.0012460930738598108,-0.1599273681640625,0.02838134765625,-0.988861083984375,96.10966491699219,-23.784835815429688,-41.459442138671875,2023-09-09 21:09:12.1330,1694311752.133209,-0.0021061087027192116,-0.0008237799629569054,-0.02044791169464588,-0.7604522109031677,-0.39520263671875,-0.4978790879249573,
0,2023-09-09 21:08:47.2620,02:55,10,1,2023-09-09 21:09:12.5800,1694311752.5796108,0.0013731258222833276,-0.002633600030094385,-0.002029062481597066,-0.1571502685546875,0.027313232421875,-0.9893341064453125,96.10966491699219,-23.784835815429688,-41.459442138671875,2023-09-09 21:09:12.2330,1694311752.232898,-0.0006586143281310797,0.005371131934225559,-0.005865807645022869,-0.7691652178764343,-0.4027405381202698,-0.4983518123626709,
0,2023-09-09 21:08:47.2620,02:55,10,1,2023-09-09 21:09:12.6800,1694311752.6798,-0.0009480853332206607,-0.003984355367720127,-0.0023118900135159492,-0.1577911376953125,0.0272064208984375,-0.9890289306640625,96.24449157714844,-23.805908203125,-41.93548583984375,2023-09-09 21:09:12.3330,1694311752.332787,0.02548084408044815,-0.0004524020478129387,0.0058005694299936295,-0.7631682753562927,-0.3856811225414276,-0.4980774223804474,
0,2023-09-09 21:08:47.2620,02:55,10,1,2023-09-09 21:09:12.7790,1694311752.7793531,-0.001418665866367519,-0.0033840788528323174,-0.0011736550368368626,-0.158966064453125,0.028472900390625,-0.9874420166015625,96.2088623046875,-23.854934692382812,-41.75947570800781,2023-09-09 21:09:12.4320,1694311752.4324908,0.0039535812102258205,-0.000990627333521843,-0.0004952102899551392,-0.7608642578125,-0.4018707275390625,-0.4966125786304474,
0,2023-09-09 21:08:47.2620,02:55,10,1,2023-09-09 21:09:12.8800,1694311752.880096,-0.00046924897469580173,-0.0038607846945524216,-0.002745985286310315,-0.15728759765625,0.0292510986328125,-0.98828125,96.26109313964844,-24.12982177734375,-41.289276123046875,2023-09-09 21:09:12.5320,1694311752.532393,-0.015341885387897491,0.01771128922700882,-0.0022639152593910694,-0.771926999092102,-0.40765389800071716,-0.49374374747276306,
0,2023-09-09 21:08:47.2620,02:55,10,1,2023-09-09 21:09:12.9800,1694311752.979996,-0.0025220136158168316,-0.004867991898208857,-0.004175037611275911,-0.1560516357421875,0.029266357421875,-0.9889678955078125,96.19694519042969,-23.944534301757812,-41.737213134765625,2023-09-09 21:09:12.6320,1694311752.6322799,0.024550601840019226,-0.0063904523849487305,0.0087819779291749,-0.7675170302391052,-0.3941802680492401,-0.5008392333984375,
0,2023-09-09 21:08:47.2620,02:55,10,1,2023-09-09 21:09:13.0800,1694311753.080024,6.844323797849938e-05,-0.005289836786687374,-0.0006290386663749814,-0.1567535400390625,0.0285491943359375,-0.9888153076171875,96.21919250488281,-23.781097412109375,-42.027313232421875,2023-09-09 21:09:12.7320,1694311752.732003,0.00949115864932537,-0.0066063012927770615,-0.005049915052950382,-0.7739410400390625,-0.4173736274242401,-0.4985962212085724,
0,2023-09-09 21:08:47.2620,02:55,10,1,2023-09-09 21:09:13.1800,1694311753.179769,0.0009174589649774134,-0.0017438378417864442,-0.0041121868416666985,-0.1578826904296875,0.029205322265625,-0.9873199462890625,96.23689270019531,-24.001296997070312,-41.87562561035156,2023-09-09 21:09:12.8320,1694311752.831757,0.0029487041756510735,-0.00774347223341465,-0.005369827151298523,-0.7648772597312927,-0.3933257758617401,-0.5105590224266052,
0,2023-09-09 21:08:47.2620,02:55,10,1,2023-09-09 21:09:13.2800,1694311753.279643,-0.001889246515929699,-0.002606702037155628,-0.002174471039324999,-0.1587982177734375,0.0283050537109375,-0.98773193359375,96.05146789550781,-23.908126831054688,-42.196868896484375,2023-09-09 21:09:12.9320,1694311752.931641,0.012396002188324928,-0.00289811659604311,-0.009358176961541176,-0.7633208632469177,-0.4035186469554901,-0.4980316162109375,
0,2023-09-09 21:08:47.2620,02:55,10,1,2023-09-09 21:09:13.3800,1694311753.380235,-0.0007105313707143068,-0.004321511369198561,-0.0024791366886347532,-0.1566009521484375,0.028900146484375,-0.9880523681640625,96.15504455566406,-23.95526123046875,-41.88835144042969,2023-09-09 21:09:13.0330,1694311753.03335,-0.018380753695964813,0.01385862659662962,-0.002672477625310421,-0.7602538466453552,-0.4098968207836151,-0.4924773871898651,
0,2023-09-09 21:08:47.2620,02:55,10,1,2023-09-09 21:09:13.4800,1694311753.480156,-0.0010655306978151202,-0.005352154839783907,-0.0041193775832653046,-0.1564483642578125,0.029937744140625,-0.987030029296875,96.12117004394531,-23.85772705078125,-41.71162414550781,2023-09-09 21:09:13.1350,1694311753.135211,-0.0018989813979715109,0.006376208737492561,0.0017646148335188627,-0.7609710097312927,-0.3908080756664276,-0.4946289360523224,
0,2023-09-09 21:08:47.2620,02:55,10,1,2023-09-09 21:09:13.5800,1694311753.579778,-0.0002436792419757694,-0.002065015025436878,-0.0028160265646874905,-0.1573638916015625,0.02813720703125,-0.98779296875,96.18077087402344,-23.74517822265625,-42.000244140625,2023-09-09 21:09:13.2310,1694311753.2313871,0.008420102298259735,0.0007175239734351635,0.0011180660221725702,-0.7554473876953125,-0.4029998481273651,-0.5025025010108948,
0,2023-09-09 21:08:47.2620,02:55,10,1,2023-09-09 21:09:13.6800,1694311753.680307,-0.001386441639624536,-0.006911968346685171,-0.0030927290208637714,-0.15771484375,0.0273284912109375,-0.988616943359375,96.15325927734375,-23.654190063476562,-41.81715393066406,2023-09-09 21:09:13.3310,1694311753.331087,-0.015220845118165016,0.001477457582950592,0.0022844308987259865,-0.7675170302391052,-0.388214111328125,-0.4953613579273224,
0,2023-09-09 21:08:47.2620,02:55,10,1,2023-09-09 21:09:13.7800,1694311753.780199,-0.005641906522214413,-0.0010556770721450448,-0.0024285365361720324,-0.158843994140625,0.0259552001953125,-0.9904327392578125,96.23591613769531,-23.8323974609375,-41.84996032714844,2023-09-09 21:09:13.4310,1694311753.430718,-0.01886405050754547,0.01063633430749178,-0.0026916859205812216,-0.7664337158203125,-0.4007415473461151,-0.4941558837890625,
0,2023-09-09 21:08:47.2620,02:55,10,1,2023-09-09 21:09:13.8800,1694311753.880449,-0.001070857048034668,-0.006923419889062643,-0.004466920159757137,-0.158416748046875,0.0269775390625,-0.9904937744140625,96.11129760742188,-23.706787109375,-41.57916259765625,2023-09-09 21:09:13.5310,1694311753.530554,0.010437114164233208,-0.001705552451312542,-0.002028292277827859,-0.7726592421531677,-0.4021606147289276,-0.4948730766773224,
0,2023-09-09 21:08:47.2620,02:55,10,1,2023-09-09 21:09:13.9810,1694311753.980763,-0.0015547533985227346,-0.0032714270055294037,-0.0016668725293129683,-0.15960693359375,0.027374267578125,-0.9876708984375,96.18544006347656,-24.048629760742188,-41.65003967285156,2023-09-09 21:09:13.6300,1694311753.630373,0.010243435390293598,-0.007279681973159313,0.00942359957844019,-0.7593840956687927,-0.4104461371898651,-0.498321533203125,
0,2023-09-09 21:08:47.2620,02:55,10,1,2023-09-09 21:09:14.0800,1694311754.080411,-0.0038448055274784565,-0.0011105381418019533,-0.0008767126128077507,-0.1604156494140625,0.0285186767578125,-0.9852447509765625,96.32525634765625,-24.0892333984375,-41.576873779296875,2023-09-09 21:09:13.7300,1694311753.730091,-0.023546552285552025,0.010143383406102657,-0.004590719006955624,-0.765472412109375,-0.3974456489086151,-0.4892577826976776,
0,2023-09-09 21:08:47.2620,02:55,10,1,2023-09-09 21:09:14.1770,1694311754.1771212,-0.001246892032213509,-0.0059958407655358315,-0.0037670412566512823,-0.152679443359375,0.029205322265625,-0.9907684326171875,96.322021484375,-23.960845947265625,-41.31159973144531,2023-09-09 21:09:13.8300,1694311753.829932,-0.0019262121059000492,0.004829578101634979,0.01029262226074934,-0.7627105712890625,-0.4083404242992401,-0.4913788139820099,
0,2023-09-09 21:08:47.2620,02:55,10,1,2023-09-09 21:09:14.2800,1694311754.280427,-0.001213336130604148,-0.00663420045748353,-0.0017872473690658808,-0.1604461669921875,0.0298919677734375,-0.9859466552734375,96.16200256347656,-23.797042846679688,-41.962310791015625,2023-09-09 21:09:13.9300,1694311753.929652,0.02700330689549446,-0.005731985904276371,0.005546004045754671,-0.7609557509422302,-0.4038543403148651,-0.5035705864429474,
0,2023-09-09 21:08:47.2620,02:55,10,1,2023-09-09 21:09:14.3810,1694311754.380835,-0.003322825999930501,-0.0026442527305334806,-0.002743322169408202,-0.15679931640625,0.0304107666015625,-0.9884490966796875,96.07955932617188,-23.842178344726562,-41.96685791015625,2023-09-09 21:09:14.0300,1694311754.030014,0.0004039204213768244,0.0034620449878275394,0.004063688684254885,-0.7700958251953125,-0.4059295356273651,-0.4977569580078125,
0,2023-09-09 21:08:47.2620,02:55,10,1,2023-09-09 21:09:14.4800,1694311754.4799252,-0.0004972121678292751,-0.005783320404589176,-0.0019065570086240768,-0.1569061279296875,0.029693603515625,-0.9882049560546875,96.06301879882812,-23.830230712890625,-41.78218078613281,2023-09-09 21:09:14.1300,1694311754.1295428,0.006765146739780903,-0.007843606173992157,-0.0027605281211435795,-0.7647401094436646,-0.3992157280445099,-0.5004425644874573,
0,2023-09-09 21:08:47.2620,02:55,10,1,2023-09-09 21:09:14.5800,1694311754.580462,-0.0003182477375958115,-0.006613694131374359,-0.0011254518758505583,-0.1565399169921875,0.0282135009765625,-0.9881134033203125,96.21173095703125,-24.073410034179688,-41.7093505859375,2023-09-09 21:09:14.2290,1694311754.229259,-0.020374063402414322,-0.0016469629481434822,0.010745160281658173,-0.7663115859031677,-0.4185791015625,-0.5020141899585724,
0,2023-09-09 21:08:47.2620,02:55,10,1,2023-09-09 21:09:14.6810,1694311754.680773,-0.0006729807937517762,-0.004786765668541193,-0.0028823392931371927,-0.1590576171875,0.02899169921875,-0.987701416015625,96.05450439453125,-23.9700927734375,-41.73405456542969,2023-09-09 21:09:14.3290,1694311754.3290849,0.002638179576024413,-0.00491519458591938,-0.016700778156518936,-0.765869140625,-0.3872985541820526,-0.5001526474952698,
0,2023-09-09 21:08:47.2620,02:55,10,1,2023-09-09 21:09:14.7810,1694311754.7808208,-0.0023214775137603283,-0.004877046681940556,-0.0023989754263311625,-0.15765380859375,0.029541015625,-0.987640380859375,96.01176452636719,-23.725555419921875,-41.885284423828125,2023-09-09 21:09:14.4290,1694311754.429018,0.007672685664147139,-0.005045821890234947,-0.0017073480412364006,-0.765869140625,-0.396148681640625,-0.4974517822265625,
0,2023-09-09 21:08:47.2620,02:55,10,1,2023-09-09 21:09:14.8810,1694311754.880558,-0.0006631271098740399,-0.007342068944126368,-0.0008452873444184661,-0.1562957763671875,0.029632568359375,-0.9892120361328125,96.09553527832031,-24.020492553710938,-41.95562744140625,2023-09-09 21:09:14.5290,1694311754.528767,-0.01684890314936638,-0.0019435063004493713,-0.007426619529724121,-0.769561767578125,-0.4062194526195526,-0.493011474609375,
0,2023-09-09 21:08:47.2620,02:55,10,1,2023-09-09 21:09:14.9800,1694311754.980483,-0.0021632856223732233,-0.007966579869389534,-0.0026375947054475546,-0.15679931640625,0.0268402099609375,-0.9881134033203125,95.94955444335938,-23.813735961914062,-42.11231994628906,2023-09-09 21:09:14.6290,1694311754.628639,0.011470353230834007,0.002713829278945923,-0.009924397803843021,-0.764892578125,-0.3883514106273651,-0.5017395317554474,
0,2023-09-09 21:08:47.2620,02:55,10,1,2023-09-09 21:09:15.0810,1694311755.080861,0.0005544701125472784,-0.0022471752017736435,-0.0028277444653213024,-0.1598968505859375,0.0280609130859375,-0.988494873046875,96.18698120117188,-23.892257690429688,-41.69024658203125,2023-09-09 21:09:14.7280,1694311754.728498,0.014280853793025017,0.0028721545822918415,-0.012041378766298294,-0.763351321220398,-0.4047546088695526,-0.4929198920726776,
0,2023-09-09 21:08:47.2620,02:55,10,1,2023-09-09 21:09:15.1770,1694311755.176877,-0.001002413802780211,-0.003153448924422264,-0.00481393001973629,-0.1571807861328125,0.0268096923828125,-0.9893341064453125,96.09432983398438,-23.99432373046875,-41.83128356933594,2023-09-09 21:09:14.8280,1694311754.82822,0.00541139580309391,0.0035130446776747704,-0.0062927789986133575,-0.7609404921531677,-0.4163970351219177,-0.4914092719554901,
0,2023-09-09 21:08:47.2620,02:55,10,1,2023-09-09 21:09:15.2810,1694311755.2809649,-0.0030924626626074314,-0.004162786994129419,-0.0019765980541706085,-0.1585845947265625,0.0279083251953125,-0.9886627197265625,96.22053527832031,-23.985015869140625,-41.6815185546875,2023-09-09 21:09:14.9280,1694311754.9282951,0.001895756577141583,0.0010376363061368465,-0.010709231719374657,-0.769363284111023,-0.4166716933250427,-0.4937743544578552,
