SessionID,SessionDate,SessionDuration,SessionFrequency,RecordID,Timestamp,timeIntervalSince1970,GyroX,GyroY,GyroZ,AccX,AccY,AccZ,MagX,MagY,MagZ,WatchTimestamp,WatchtImeIntervalSince1970,WatchGyroX,WatchGyroY,WatchGyroZ,WatchAccX,WatchAccY,WatchAccZ
0,2023-09-09 21:56:43.3680,02:41,10,1,2023-09-09 21:56:43.4810,1694314603.48071,-0.0019475696608424187,-0.0037145770620554686,-0.003022954100742936,0.00555419921875,-0.016143798828125,-1.001495361328125,107.15934753417969,-25.995834350585938,-40.76005554199219,2023-09-09 21:56:43.1890,1694314603.1887178,-0.10338066518306732,0.033139780163764954,0.021452007815241814,-0.1477051079273224,-0.3575439751148224,-0.9160613417625427,
0,2023-09-09 21:56:43.3680,02:41,10,1,2023-09-09 21:56:43.5800,1694314603.5801091,-0.0004964132094755769,-0.003952929750084877,-0.0007235808880068362,0.007354736328125,-0.01373291015625,-1.0002899169921875,106.9892578125,-25.8118896484375,-41.41783142089844,2023-09-09 21:56:43.2660,1694314603.266118,0.030291112139821053,0.025487184524536133,-0.003180102678015828,-0.1408691704273224,-0.3446502983570099,-0.9317321181297302,
0,2023-09-09 21:56:43.3680,02:41,10,1,2023-09-09 21:56:43.6790,1694314603.678802,-0.0024370586033910513,-0.0024770060554146767,-0.005602758377790451,0.0079803466796875,-0.0132293701171875,-0.999542236328125,106.9072265625,-25.639236450195312,-41.75752258300781,2023-09-09 21:56:43.3570,1694314603.356628,0.06614670902490616,-0.010564823634922504,0.01588473469018936,-0.1255645900964737,-0.3502655625343323,-0.9090118408203125,
0,2023-09-09 21:56:43.3680,02:41,10,1,2023-09-09 21:56:43.7790,1694314603.7789788,-0.0029318740125745535,-0.003144660498946905,-0.0037582528311759233,0.0069427490234375,-0.0147247314453125,-0.9995574951171875,106.95098876953125,-25.673614501953125,-41.38462829589844,2023-09-09 21:56:43.4560,1694314603.456026,0.024360718205571175,-0.06072693318128586,-0.05897129327058792,-0.1280365288257599,-0.3795929253101349,-0.9294891357421875,
0,2023-09-09 21:56:43.3680,02:41,10,1,2023-09-09 21:56:43.8790,1694314603.879272,-0.000441818410763517,-0.0041468082927167416,-0.004320978652685881,0.00335693359375,-0.0147552490234375,-1.0015106201171875,107.05712890625,-25.931900024414062,-40.865631103515625,2023-09-09 21:56:43.5560,1694314603.555814,-0.019994761794805527,0.026604516431689262,0.017712963744997978,-0.1649170219898224,-0.3758392930030823,-0.914337158203125,
0,2023-09-09 21:56:43.3680,02:41,10,1,2023-09-09 21:56:43.9790,1694314603.9785872,-0.0014974954538047314,-0.005053880624473095,-0.0013337110867723823,0.0060272216796875,-0.0153045654296875,-1.0036773681640625,106.91390991210938,-25.830947875976562,-41.626312255859375,2023-09-09 21:56:43.6560,1694314603.6555948,0.09949907660484314,-0.02225423790514469,0.027985606342554092,-0.1307983696460724,-0.36495980620384216,-0.924102783203125,
0,2023-09-09 21:56:43.3680,02:41,10,1,2023-09-09 21:56:44.0800,1694314604.0802422,-0.0012825783342123032,-0.0020354539155960083,-0.002612827345728874,0.0057373046875,-0.016265869140625,-1.003997802734375,107.29953002929688,-26.370132446289062,-39.82476806640625,2023-09-09 21:56:43.7670,1694314603.7671041,0.07092855870723724,0.06139937788248062,0.03393064811825752,-0.1329040676355362,-0.3787232041358948,-0.9353637099266052,
0,2023-09-09 21:56:43.3680,02:41,10,1,2023-09-09 21:56:44.1800,1694314604.1802812,-0.0031403994653373957,-0.0028583707753568888,-0.0013494236627593637,0.0062408447265625,-0.0155487060546875,-1.0010223388671875,106.88259887695312,-25.538848876953125,-41.45794677734375,2023-09-09 21:56:43.8560,1694314603.8555179,0.13691002130508423,0.09259764105081558,-0.025728721171617508,-0.11059573292732239,-0.3587799668312073,-0.901458740234375,
0,2023-09-09 21:56:43.3680,02:41,10,1,2023-09-09 21:56:44.2790,1694314604.2790442,-0.001517469179816544,-0.005680522415786982,-0.0023816649336367846,0.0067138671875,-0.0147247314453125,-1.001190185546875,106.94551086425781,-25.962799072265625,-40.866302490234375,2023-09-09 21:56:43.9550,1694314603.955198,0.022067338228225708,0.0961332619190216,-0.06633859872817993,-0.13192752748727798,-0.3707123398780823,-0.9155425429344177,
0,2023-09-09 21:56:43.3680,02:41,10,1,2023-09-09 21:56:44.3670,1694314604.367389,-0.001517469179816544,-0.005680522415786982,-0.0023816649336367846,0.0081787109375,-0.0124969482421875,-0.9984130859375,106.88456726074219,-25.667831420898438,-41.344879150390625,2023-09-09 21:56:44.0550,1694314604.055038,0.024644944816827774,0.09096286445856094,-0.03274425119161606,-0.1269226372241974,-0.4114380478858948,-0.9121703505516052,
0,2023-09-09 21:56:43.3680,02:41,10,1,2023-09-09 21:56:44.4690,1694314604.46895,-0.004362790379673243,-0.002510561840608716,-0.0036093820817768574,0.00799560546875,-0.0117645263671875,-0.9982757568359375,106.84475708007812,-25.661727905273438,-41.60462951660156,2023-09-09 21:56:44.1550,1694314604.155103,0.03988149017095566,0.00513437669724226,0.019894957542419434,-0.09498599171638489,-0.4142304062843323,-0.893707275390625,
0,2023-09-09 21:56:43.3680,02:41,10,1,2023-09-09 21:56:44.5690,1694314604.5689368,-0.0013584784464910626,-0.0025989788118749857,-0.0008322378271259367,0.0050201416015625,-0.0145416259765625,-0.9995880126953125,107.02520751953125,-25.793731689453125,-41.8619384765625,2023-09-09 21:56:44.2550,1694314604.254961,0.10347064584493637,-0.01941850408911705,-0.00035668566124513745,-0.10894778370857239,-0.4167633354663849,-0.9108428359031677,
0,2023-09-09 21:56:43.3680,02:41,10,1,2023-09-09 21:56:44.6680,1694314604.6679559,-0.0032498554792255163,-0.004284759983420372,-0.000755805114749819,0.00701904296875,-0.0123748779296875,-0.99981689453125,106.86277770996094,-25.70819091796875,-42.303985595703125,2023-09-09 21:56:44.3550,1694314604.3547502,0.034776609390974045,0.019755929708480835,0.007177763152867556,-0.10893253237009048,-0.4306183457374573,-0.8776092529296875,
0,2023-09-09 21:56:43.3680,02:41,10,1,2023-09-09 21:56:44.7690,1694314604.768804,-0.001291100517846644,-0.0024413196370005608,-0.003556119045242667,0.0063629150390625,-0.014739990234375,-0.9998779296875,106.91288757324219,-25.882583618164062,-42.1180419921875,2023-09-09 21:56:44.4550,1694314604.4545379,-0.0003621377982199192,-0.001865343190729618,-0.004436715040355921,-0.10600284487009048,-0.4300385117530823,-0.8865203261375427,
0,2023-09-09 21:56:43.3680,02:41,10,1,2023-09-09 21:56:44.8690,1694314604.8687348,-0.002704173792153597,-0.003591006388887763,-0.004775047767907381,0.006561279296875,-0.014556884765625,-0.9991607666015625,106.82888793945312,-25.653106689453125,-42.10882568359375,2023-09-09 21:56:44.5540,1694314604.554394,0.03353217989206314,-0.012428504414856434,-0.02400868572294712,-0.10745241492986679,-0.4109802842140198,-0.8984526991844177,
0,2023-09-09 21:56:43.3680,02:41,10,1,2023-09-09 21:56:44.9690,1694314604.968672,-0.001958222361281514,-0.005511678289622068,-0.005627525504678488,0.0094146728515625,-0.014312744140625,-0.999420166015625,106.805908203125,-25.621673583984375,-42.26106262207031,2023-09-09 21:56:44.6540,1694314604.654224,0.05140571668744087,0.004109725821763277,-0.0190939549356699,-0.11201480031013489,-0.4430390000343323,-0.8936461806297302,
0,2023-09-09 21:56:43.3680,02:41,10,1,2023-09-09 21:56:45.0690,1694314605.069388,-0.002700445242226124,-0.00230789533816278,-0.003500991500914097,0.0088958740234375,-0.012786865234375,-0.998931884765625,106.95745849609375,-25.754318237304688,-41.98236083984375,2023-09-09 21:56:44.7540,1694314604.75403,0.017340093851089478,0.0005052704364061356,-0.033756885677576065,-0.10656741261482239,-0.4436188042163849,-0.8842620849609375,
0,2023-09-09 21:56:43.3680,02:41,10,1,2023-09-09 21:56:45.1690,1694314605.168748,-0.005172391422092915,-0.0019979034550487995,-0.0024650217965245247,0.00750732421875,-0.013519287109375,-0.9994354248046875,106.633544921875,-25.70892333984375,-41.86149597167969,2023-09-09 21:56:44.8540,1694314604.853967,-0.02190018817782402,0.02035687118768692,-0.04830377176403999,-0.10018923133611679,-0.4461365044116974,-0.8737639784812927,
0,2023-09-09 21:56:43.3680,02:41,10,1,2023-09-09 21:56:45.2680,1694314605.268423,-0.0009262474486604333,-0.004993693437427282,-0.0029441246297210455,0.006072998046875,-0.0151519775390625,-0.99932861328125,106.95610046386719,-25.676239013671875,-41.601715087890625,2023-09-09 21:56:44.9540,1694314604.953804,-0.015805410221219063,-0.024555740877985954,-0.05224558338522911,-0.09266664832830429,-0.4409027695655823,-0.8845672011375427,
0,2023-09-09 21:56:43.3680,02:41,10,1,2023-09-09 21:56:45.3680,1694314605.3680549,-0.0010135991033166647,-0.003379551460966468,-0.004426972474902868,0.0073699951171875,-0.014617919921875,-1.0015106201171875,106.75566101074219,-25.558334350585938,-42.268524169921875,2023-09-09 21:56:45.0540,1694314605.053595,0.020290808752179146,-0.0072593092918396,-0.023052943870425224,-0.10374452918767929,-0.4393005967140198,-0.8903960585594177,
0,2023-09-09 21:56:43.3680,02:41,10,1,2023-09-09 21:56:45.4680,1694314605.467905,-0.0013638047967106104,-0.0038783615455031395,-0.0022298647090792656,0.0061798095703125,-0.0165252685546875,-1.00390625,106.63087463378906,-25.32904052734375,-42.50762939453125,2023-09-09 21:56:45.1530,1694314605.1534,-0.1833023875951767,-0.07560507953166962,-0.003551480360329151,-0.09854128956794739,-0.4222107529640198,-0.8828582167625427,
0,2023-09-09 21:56:43.3680,02:41,10,1,2023-09-09 21:56:45.5680,1694314605.568121,-5.193164179218002e-05,-0.004516454879194498,-0.0046759783290326595,0.0071868896484375,-0.01617431640625,-1.0028533935546875,106.75828552246094,-25.10614013671875,-42.063079833984375,2023-09-09 21:56:45.2530,1694314605.2531052,-0.08518122136592865,-0.013491238467395306,-0.03358631208539009,-0.10121157020330429,-0.4317322075366974,-0.8871154189109802,
0,2023-09-09 21:56:43.3680,02:41,10,1,2023-09-09 21:56:45.6680,1694314605.667731,-0.0015076154377311468,-0.0051718587055802345,-0.001758218975737691,0.006591796875,-0.013275146484375,-1.0013275146484375,106.73127746582031,-25.347946166992188,-42.12077331542969,2023-09-09 21:56:45.3530,1694314605.353156,-0.22712399065494537,-0.09346702694892883,-0.11535947024822235,-0.1268005594611168,-0.4210968613624573,-0.8324127197265625,
0,2023-09-09 21:56:43.3680,02:41,10,1,2023-09-09 21:56:45.7690,1694314605.768777,-0.0015161376213654876,-0.002859169617295265,-0.0018674085149541497,0.0049591064453125,-0.0128326416015625,-1.000457763671875,106.76828002929688,-25.004837036132812,-42.870147705078125,2023-09-09 21:56:45.4530,1694314605.45277,-0.6256199479103088,-0.17606869339942932,-0.3511364459991455,-0.1551666483283043,-0.43121346831321716,-0.8614348769187927,
0,2023-09-09 21:56:43.3680,02:41,10,1,2023-09-09 21:56:45.8680,1694314605.868254,-0.0033489251509308815,-0.004904743749648333,-0.0017699368763715029,0.005889892578125,-0.012054443359375,-0.9980316162109375,106.77726745605469,-24.898529052734375,-42.80720520019531,2023-09-09 21:56:45.5530,1694314605.552748,-0.9058592915534973,-0.2698110342025757,-1.096075177192688,-0.2122345119714737,-0.37834176421165466,-0.7884215712547302,
0,2023-09-09 21:56:43.3680,02:41,10,1,2023-09-09 21:56:45.9680,1694314605.968104,-0.0019888486713171005,-0.005742840468883514,-0.001960885478183627,0.0051422119140625,-0.0110931396484375,-0.9974212646484375,106.77104187011719,-25.1424560546875,-42.515228271484375,2023-09-09 21:56:45.6530,1694314605.6530008,-0.6801746487617493,-0.38443467020988464,-1.5385231971740723,-0.1731872707605362,-0.24035651981830597,-0.8611449599266052,
0,2023-09-09 21:56:43.3680,02:41,10,1,2023-09-09 21:56:46.0690,1694314606.068577,-0.0038490667939186096,-1.4114753867033869e-05,-0.003979295492172241,0.0068817138671875,-0.0099945068359375,-0.9957275390625,106.79257202148438,-25.397048950195312,-42.90631103515625,2023-09-09 21:56:45.7530,1694314605.75274,-0.7239647507667542,-0.5149111747741699,-2.2500696182250977,-0.2691192552447319,-0.22045904397964478,-0.9324340224266052,
0,2023-09-09 21:56:43.3680,02:41,10,1,2023-09-09 21:56:46.1690,1694314606.1685271,-0.0026756778825074434,-0.005929794628173113,-0.004459196701645851,0.0076446533203125,-0.009796142578125,-0.9939727783203125,106.88296508789062,-25.344085693359375,-42.87599182128906,2023-09-09 21:56:45.8520,1694314605.8523378,-1.1022182703018188,-0.46910789608955383,-2.9798946380615234,-0.2772064059972763,-0.16215522587299347,-0.90985107421875,
0,2023-09-09 21:56:43.3680,02:41,10,1,2023-09-09 21:56:46.2680,1694314606.268021,-0.0032807481475174427,-0.002204830991104245,-0.0014333132421597838,0.0069427490234375,-0.0082855224609375,-0.9954986572265625,106.67831420898438,-25.149993896484375,-42.720672607421875,2023-09-09 21:56:45.9520,1694314605.952189,-1.773758053779602,-0.05418553948402405,-2.8703970909118652,-0.3520507290959358,0.10519402846693993,-1.0105438232421875,
0,2023-09-09 21:56:43.3680,02:41,10,1,2023-09-09 21:56:46.3680,1694314606.368277,-0.0017174725653603673,-0.005050684791058302,-0.0025957829784601927,0.006622314453125,-0.0081329345703125,-0.9965362548828125,106.70796203613281,-25.215728759765625,-42.480377197265625,2023-09-09 21:56:46.0520,1694314606.052085,-1.966298222541809,1.7854368686676025,-1.7697343826293945,-0.15014643222093582,0.3078765496611595,-1.040618896484375,
0,2023-09-09 21:56:43.3680,02:41,10,1,2023-09-09 21:56:46.4680,1694314606.4678779,0.0010780475568026304,-0.004049869254231453,-0.002171008847653866,0.0101470947265625,-0.010101318359375,-0.9991607666015625,106.63168334960938,-25.04144287109375,-42.962799072265625,2023-09-09 21:56:46.1520,1694314606.1519141,-0.94671231508255,0.49668240547180176,-1.0944856405258179,0.6005249745212495,0.4656219184398651,-1.01995849609375,
0,2023-09-09 21:56:43.3680,02:41,10,1,2023-09-09 21:56:46.5680,1694314606.5683088,-0.005486377980560064,-0.006077333353459835,-0.004223507363349199,0.0069732666015625,-0.0076141357421875,-0.9933013916015625,106.64013671875,-24.967041015625,-42.767730712890625,2023-09-09 21:56:46.2520,1694314606.2516332,-0.007388955447822809,-0.28890231251716614,0.18047672510147095,0.8301392290741205,0.4730529189109802,-0.7741241455078125,
0,2023-09-09 21:56:43.3680,02:41,10,1,2023-09-09 21:56:46.6670,1694314606.667453,-0.004128965083509684,-0.003716707695275545,-0.00350418733432889,0.007659912109375,-0.006683349609375,-0.9935455322265625,106.80093383789062,-25.253143310546875,-42.54689025878906,2023-09-09 21:56:46.3520,1694314606.351577,-0.6036479473114014,0.10924559831619263,0.14913643896579742,-0.2058715126477182,0.5378875136375427,-1.0891875624656677,
0,2023-09-09 21:56:43.3680,02:41,10,1,2023-09-09 21:56:46.7680,1694314606.767875,-0.0089378347620368,-0.0022956449538469315,-0.0017800568602979183,0.00537109375,-0.0053253173828125,-0.9887237548828125,106.66461181640625,-24.96661376953125,-42.13029479980469,2023-09-09 21:56:46.4510,1694314606.4511251,1.6187971830368042,-0.03410730138421059,0.4652547240257263,-0.05545037204865366,0.1984557807445526,-1.1049346923828125,
0,2023-09-09 21:56:43.3680,02:41,10,1,2023-09-09 21:56:46.8680,1694314606.867961,-0.007237140089273453,-0.0037646444980055094,-0.0015241270884871483,0.007232666015625,-0.0034942626953125,-0.9897003173828125,106.73178100585938,-25.189208984375,-42.081390380859375,2023-09-09 21:56:46.5510,1694314606.551256,-0.33049672842025757,-0.0042671142145991325,0.337014377117157,0.02386481035500765,0.11129756271839142,-0.961181640625,
0,2023-09-09 21:56:43.3680,02:41,10,1,2023-09-09 21:56:46.9680,1694314606.967812,-0.005872003734111786,-0.006417152937501669,-0.001820536912418902,0.0081939697265625,-0.005035400390625,-0.9918060302734375,106.85179138183594,-25.369552612304688,-41.88191223144531,2023-09-09 21:56:46.6510,1694314606.651025,-1.2414665222167969,0.10528774559497833,0.054708097130060196,0.02449040673673153,0.3247832953929901,-0.9268341660499573,
0,2023-09-09 21:56:43.3680,02:41,10,1,2023-09-09 21:56:47.0680,1694314607.067604,-0.0009142631897702813,-0.003022421384230256,-0.001311873085796833,0.0045928955078125,-0.0130462646484375,-1.0044403076171875,106.89749145507812,-25.224822998046875,-42.20649719238281,2023-09-09 21:56:46.7510,1694314606.750846,-0.11998987197875977,0.021358754485845566,-0.05126487463712692,0.021347105503082275,0.4550170302391052,-0.9041747450828552,
0,2023-09-09 21:56:43.3680,02:41,10,1,2023-09-09 21:56:47.1680,1694314607.168175,-0.0003049319493584335,-0.0014359764754772186,-0.005367068573832512,0.0064849853515625,-0.0153045654296875,-0.998748779296875,106.75247192382812,-25.255706787109375,-41.93724060058594,2023-09-09 21:56:46.8510,1694314606.850744,-0.10957730561494827,0.05828028917312622,-0.027969736605882645,0.035934507846832275,0.3605193495750427,-0.901641845703125,
0,2023-09-09 21:56:43.3680,02:41,10,1,2023-09-09 21:56:47.2680,1694314607.267953,-0.0007161240209825337,-0.004560130648314953,-0.0024802018888294697,0.0092010498046875,-0.0178680419921875,-1.0025787353515625,106.75910949707031,-25.226882934570312,-41.956085205078125,2023-09-09 21:56:46.9500,1694314606.950481,-0.12368233501911163,0.05627812072634697,0.019876280799508095,0.048812929540872574,0.4277190566062927,-0.900177001953125,
0,2023-09-09 21:56:43.3680,02:41,10,1,2023-09-09 21:56:47.3670,1694314607.367189,0.00035979304811917245,-0.002703641075640917,-0.0021435783710330725,0.007232666015625,-0.0166168212890625,-1.0030517578125,106.87234497070312,-25.116439819335938,-41.78507995605469,2023-09-09 21:56:47.0510,1694314607.050741,0.09915207326412201,-0.012265519239008427,-0.017053773626685143,0.047592222690582275,0.4416503608226776,-0.8964844346046448,
0,2023-09-09 21:56:43.3680,02:41,10,1,2023-09-09 21:56:47.4680,1694314607.4684138,-0.002546514617279172,-0.00475427508354187,-0.0007400924805551767,0.0075531005859375,-0.016448974609375,-1.00323486328125,106.88116455078125,-25.423904418945312,-42.35444641113281,2023-09-09 21:56:47.1500,1694314607.15033,-0.009824881330132484,0.025701571255922318,0.004369959235191345,0.038131777197122574,0.4033660292625427,-0.9073028564453125,
0,2023-09-09 21:56:43.3680,02:41,10,1,2023-09-09 21:56:47.5680,1694314607.5680962,0.000218645524000749,-0.0060115535743534565,-0.0008202536264434457,0.0050201416015625,-0.01690673828125,-1.0033721923828125,106.89208984375,-25.153778076171875,-42.063385009765625,2023-09-09 21:56:47.2500,1694314607.250115,-0.07446552813053131,-0.01953861117362976,-0.01616893894970417,0.048660341650247574,0.4309692084789276,-0.901641845703125,
0,2023-09-09 21:56:43.3680,02:41,10,1,2023-09-09 21:56:47.6680,1694314607.668148,-0.0014514228096231818,-0.008703743107616901,-0.0032032502349466085,0.00592041015625,-0.017852783203125,-1.003021240234375,106.79927062988281,-25.40313720703125,-42.266357421875,2023-09-09 21:56:47.3500,1694314607.349792,-0.07992839813232422,-0.019665777683258057,-0.004339875653386116,0.03581243380904198,0.4242706000804901,-0.9019013047218323,
0,2023-09-09 21:56:43.3680,02:41,10,1,2023-09-09 21:56:47.7680,1694314607.7678928,0.00042983421008102596,-0.007548197638243437,-0.00046046054922044277,0.004913330078125,-0.017791748046875,-1.0018310546875,106.85951232910156,-25.519149780273438,-42.29608154296875,2023-09-09 21:56:47.4500,1694314607.449691,-0.17254535853862762,-0.019124489277601242,0.004418561700731516,0.030532892793416977,0.4252624213695526,-0.8967437744140625,
0,2023-09-09 21:56:43.3680,02:41,10,1,2023-09-09 21:56:47.8680,1694314607.867655,0.002243713242933154,-0.006259493995457888,-0.004205664154142141,0.00634765625,-0.0160369873046875,-1.00164794921875,106.76724243164062,-25.153350830078125,-42.14308166503906,2023-09-09 21:56:47.5500,1694314607.5495,0.009448881261050701,-0.008840827271342278,0.03540034592151642,0.03178412467241287,0.4696807265281677,-0.8889008164405823,
0,2023-09-09 21:56:43.3680,02:41,10,1,2023-09-09 21:56:47.9690,1694314607.9685721,-0.001990446588024497,-0.002983805723488331,-0.004771851934492588,0.006591796875,-0.01556396484375,-1.0009307861328125,106.78761291503906,-25.288711547851562,-42.49249267578125,2023-09-09 21:56:47.6490,1694314607.649374,-0.006084471940994263,0.013735455460846424,0.0017977450042963028,0.03187567740678787,0.4390563666820526,-0.8888702392578125,
0,2023-09-09 21:56:43.3680,02:41,10,1,2023-09-09 21:56:48.0680,1694314608.067982,-0.001047154888510704,-0.003934820648282766,-0.003611779073253274,0.0069580078125,-0.0150604248046875,-1.0014801025390625,106.89021301269531,-25.470687866210938,-42.15089416503906,2023-09-09 21:56:47.7490,1694314607.7491798,0.027926625683903694,0.0042383563704788685,0.008557713590562344,0.039154116064310074,0.4500274062156677,-0.8901672959327698,
0,2023-09-09 21:56:43.3680,02:41,10,1,2023-09-09 21:56:48.1690,1694314608.168736,-0.002189384773373604,-0.004679706413298845,-0.0028764803428202868,0.0056915283203125,-0.015533447265625,-1.0029449462890625,106.96479797363281,-25.349578857421875,-41.78709411621094,2023-09-09 21:56:47.8490,1694314607.8491511,-0.005990861915051937,0.008336961269378662,-0.003740498097613454,0.045059263706207275,0.4576263129711151,-0.8870849609375,
0,2023-09-09 21:56:43.3680,02:41,10,1,2023-09-09 21:56:48.2680,1694314608.268258,-0.00033662354690022767,-0.007456584833562374,-0.0034642398823052645,0.00543212890625,-0.0154876708984375,-1.00115966796875,106.86042785644531,-25.3946533203125,-41.74061584472656,2023-09-09 21:56:47.9490,1694314607.948894,-0.00039549381472170353,0.00450373999774456,0.007662325166165829,0.04118353873491287,0.4465636909008026,-0.889801025390625,
0,2023-09-09 21:56:43.3680,02:41,10,1,2023-09-09 21:56:48.3680,1694314608.368413,-0.0003507383225951344,-0.004235225263983011,-0.0008492820779792964,0.006805419921875,-0.0159759521484375,-1.00140380859375,106.71316528320312,-25.224273681640625,-42.395660400390625,2023-09-09 21:56:48.0490,1694314608.048746,0.013515793718397617,-0.006523078307509422,-0.0033911247737705708,0.04394536465406418,0.4604033827781677,-0.8886414170265198,
0,2023-09-09 21:56:43.3680,02:41,10,1,2023-09-09 21:56:48.4680,1694314608.467875,-0.0007954862085171044,-0.002665824256837368,-0.005349491722881794,0.00628662109375,-0.0156707763671875,-1.0023651123046875,106.73393249511719,-25.386520385742188,-42.188812255859375,2023-09-09 21:56:48.1490,1694314608.1485372,-0.05324246361851692,0.0007329708896577358,-0.011899524368345737,0.04025273770093918,0.4492339789867401,-0.888824462890625,
0,2023-09-09 21:56:43.3680,02:41,10,1,2023-09-09 21:56:48.5680,1694314608.56813,0.0014418354257941246,-0.0041215079836547375,-0.0029379993211477995,0.0062103271484375,-0.0152435302734375,-1.0019683837890625,106.85617065429688,-25.281478881835938,-42.03358459472656,2023-09-09 21:56:48.2480,1694314608.2484689,-0.02551409602165222,-0.008210591040551662,-0.005914502777159214,0.04034429416060448,0.4447631537914276,-0.8883056640625,
0,2023-09-09 21:56:43.3680,02:41,10,1,2023-09-09 21:56:48.6680,1694314608.6676102,-0.002104163635522127,-0.002758768619969487,-0.0025217472575604916,0.0064697265625,-0.013641357421875,-1.0001983642578125,106.83900451660156,-25.547286987304688,-42.009521484375,2023-09-09 21:56:48.3480,1694314608.348351,-0.01668138988316059,-0.0021317917853593826,0.001552834059111774,0.037338320165872574,0.4477386176586151,-0.886077880859375,
0,2023-09-09 21:56:43.3680,02:41,10,1,2023-09-09 21:56:48.7810,1694314608.7810888,-0.0014229270163923502,-0.00304718897677958,-0.0007957525085657835,0.0058441162109375,-0.014678955078125,-1.001617431640625,106.74383544921875,-25.4329833984375,-42.14642333984375,2023-09-09 21:56:48.4480,1694314608.448211,0.01528992597013712,-0.0018909089267253876,-9.662803495302796e-05,0.04083257541060448,0.4686126112937927,-0.883575439453125,
0,2023-09-09 21:56:43.3680,02:41,10,1,2023-09-09 21:56:48.8690,1694314608.8686461,-0.0012309130979701877,-0.0059449742548167706,-0.002612028270959854,0.0068359375,-0.015045166015625,-1.0007476806640625,106.8465576171875,-25.190032958984375,-42.41111755371094,2023-09-09 21:56:48.5480,1694314608.548009,-0.013336393050849438,-0.0012845071032643318,-4.349788650870323e-05,0.042022764682769775,0.4524993300437927,-0.885406494140625,
0,2023-09-09 21:56:43.3680,02:41,10,1,2023-09-09 21:56:48.9680,1694314608.967824,-0.0011496866354718804,-0.0032983249984681606,-0.004803543444722891,0.0065460205078125,-0.01507568359375,-1.0010986328125,106.87091064453125,-25.3623046875,-42.33891296386719,2023-09-09 21:56:48.6480,1694314608.647841,0.009760803543031216,0.005086307413876057,0.008450321853160858,0.047576967626810074,0.4562377631664276,-0.8849029541015625,
0,2023-09-09 21:56:43.3680,02:41,10,1,2023-09-09 21:56:49.0680,1694314609.068435,-0.0003278351214248687,-0.005641906522214413,-0.002496180823072791,0.006591796875,-0.0145263671875,-1.0001678466796875,106.75318908691406,-25.415023803710938,-42.3988037109375,2023-09-09 21:56:48.7480,1694314608.747658,0.003898720256984234,-0.006972885690629482,-0.0010762384627014399,0.04258733615279198,0.4473266005516052,-0.8861083984375,
0,2023-09-09 21:56:43.3680,02:41,10,1,2023-09-09 21:56:49.1680,1694314609.168373,-0.0007137271459214389,-0.005382781382650137,-0.0012282498646527529,0.006744384765625,-0.0145416259765625,-1.0003509521484375,106.72636413574219,-25.399444580078125,-42.11283874511719,2023-09-09 21:56:48.8470,1694314608.847491,0.0045137773267924786,-0.006357163190841675,-0.0017207900527864695,0.044525209814310074,0.4561614692211151,-0.8849182724952698,
0,2023-09-09 21:56:43.3680,02:41,10,1,2023-09-09 21:56:49.2680,1694314609.268252,-5.219795639277436e-05,-0.005824599415063858,-0.0028873991686850786,0.00543212890625,-0.01495361328125,-1.001678466796875,106.92877197265625,-25.709381103515625,-41.99458312988281,2023-09-09 21:56:48.9470,1694314608.94726,0.018486585468053818,-0.009218730963766575,-0.008020764216780663,0.041473452001810074,0.4620513617992401,-0.8836212158203125,
0,2023-09-09 21:56:43.3680,02:41,10,1,2023-09-09 21:56:49.3680,1694314609.3681378,-0.0035689021460711956,0.00035420042695477605,-0.0028613002505153418,0.0071563720703125,-0.015167236328125,-1.0016021728515625,106.89488220214844,-25.672088623046875,-42.22125244140625,2023-09-09 21:56:49.0470,1694314609.0470881,-0.004056141711771488,-0.0008348319679498672,0.0007175336359068751,0.03923040255904198,0.4567260444164276,-0.88604736328125,
0,2023-09-09 21:56:43.3680,02:41,10,1,2023-09-09 21:56:49.4680,1694314609.4675798,-0.0005723133217543364,-0.0051289820112288,0.0013965616235509515,0.005523681640625,-0.0128631591796875,-1.0063629150390625,106.82574462890625,-25.332550048828125,-42.36882019042969,2023-09-09 21:56:49.1470,1694314609.14696,0.014945512637495995,-0.0034564482048153877,-0.0027046282775700092,0.039611876010894775,0.4607543647289276,-0.88604736328125,
0,2023-09-09 21:56:43.3680,02:41,10,1,2023-09-09 21:56:49.5690,1694314609.56863,-0.0034938009921461344,-0.019887687638401985,-0.0006479470757767558,-0.0053863525390625,-0.019805908203125,-0.992095947265625,106.81155395507812,-25.373153686523438,-42.196990966796875,2023-09-09 21:56:49.2470,1694314609.246845,-0.026110045611858368,0.0016720006242394447,-0.0022060845512896776,0.035430967807769775,0.4472503364086151,-0.8895263671875,
0,2023-09-09 21:56:43.3680,02:41,10,1,2023-09-09 21:56:49.6680,1694314609.667893,0.00138084904756397,-0.0029702235478907824,-0.004908738657832146,0.004058837890625,-0.01751708984375,-1.005767822265625,106.93635559082031,-25.336685180664062,-41.9398193359375,2023-09-09 21:56:49.3470,1694314609.346894,0.006697369739413261,-0.005187902599573135,0.0013707070611417294,0.04223638400435448,0.45306387543678284,-0.885406494140625,
0,2023-09-09 21:56:43.3680,02:41,10,1,2023-09-09 21:56:49.7680,1694314609.7680569,-0.0015164038632065058,-0.008730640634894371,-0.004774515051394701,0.0200042724609375,-0.018402099609375,-1.000946044921875,106.77577209472656,-25.292999267578125,-42.26805114746094,2023-09-09 21:56:49.4460,1694314609.446467,0.010413344949483871,-0.004801877774298191,-0.0011773055884987116,0.038528501987457275,0.4546508491039276,-0.8843231201171875,
0,2023-09-09 21:56:43.3680,02:41,10,1,2023-09-09 21:56:49.8680,1694314609.868307,0.0024527714122086763,-0.004939631093293428,-0.000922519015148282,0.0047454833984375,-0.016510009765625,-1.00146484375,106.84272766113281,-25.224884033203125,-42.446014404296875,2023-09-09 21:56:49.5460,1694314609.546369,-0.003009386593475938,-0.004238884896039963,8.003943366929889e-05,0.040634214878082275,0.4558715224266052,-0.8859710693359375,
0,2023-09-09 21:56:43.3680,02:41,10,1,2023-09-09 21:56:49.9690,1694314609.9685369,-0.003073021536692977,-0.004472779110074043,-0.004509264137595892,0.00262451171875,-0.0147552490234375,-0.999664306640625,106.71380615234375,-25.385208129882812,-42.25254821777344,2023-09-09 21:56:49.6460,1694314609.646153,0.020222099497914314,-0.009958157315850258,-0.005186328198760748,0.037719789892435074,0.4530181288719177,-0.8886566162109375,
0,2023-09-09 21:56:43.3680,02:41,10,1,2023-09-09 21:56:50.0680,1694314610.067813,-0.0017928400775417686,-0.0024029703345149755,-0.0036277580074965954,0.007598876953125,-0.013916015625,-1.0028533935546875,106.82981872558594,-25.420242309570312,-42.43833923339844,2023-09-09 21:56:49.7460,1694314609.746041,-0.0010982356034219265,0.00251662265509367,0.0021833707578480244,0.03575140982866287,0.4486388862133026,-0.887664794921875,
0,2023-09-09 21:56:43.3680,02:41,10,1,2023-09-09 21:56:50.1680,1694314610.168081,-0.0011153318919241428,-0.0034884747583419085,-0.005861351266503334,0.005584716796875,-0.016448974609375,-1.0026397705078125,106.94087219238281,-25.530181884765625,-41.79539489746094,2023-09-09 21:56:49.8460,1694314609.845913,0.008773503825068474,-0.00611747894436121,-0.0061272564344108105,0.036377016454935074,0.45106497406959534,-0.8899993896484375,
0,2023-09-09 21:56:43.3680,02:41,10,1,2023-09-09 21:56:50.2690,1694314610.2686071,-0.0006079996819607913,-0.006420881487429142,-0.0014053500490263104,0.006561279296875,-0.01507568359375,-1.000091552734375,106.80442810058594,-25.201507568359375,-42.07994079589844,2023-09-09 21:56:49.9460,1694314609.945737,-0.013035988435149193,-0.002314085140824318,-0.0009082264150492847,0.03598027676343918,0.44888296723365784,-0.889739990234375,
0,2023-09-09 21:56:43.3680,02:41,10,1,2023-09-09 21:56:50.3680,1694314610.3678122,0.0006418218254111707,-0.007262440398335457,-0.002167813014239073,0.00823974609375,-0.01416015625,-1.0017242431640625,106.75355529785156,-25.368026733398438,-41.85044860839844,2023-09-09 21:56:50.0460,1694314610.045807,-0.015820322558283806,0.0006811716593801975,-0.0039656683802604675,0.036529604345560074,0.4516296088695526,-0.8878326416015625,
0,2023-09-09 21:56:43.3680,02:41,10,1,2023-09-09 21:56:50.4680,1694314610.467808,-0.0018255969043821096,-0.0026413232553750277,-0.0019126823171973228,0.0074920654296875,-0.014923095703125,-1.0004425048828125,106.77589416503906,-25.2257080078125,-41.9190673828125,2023-09-09 21:56:50.1450,1694314610.1454182,-0.025556907057762146,0.0023385901004076004,-0.0010544005781412125,0.036575376987457275,0.4434203803539276,-0.891082763671875,
0,2023-09-09 21:56:43.3680,02:41,10,1,2023-09-09 21:56:50.5690,1694314610.5687299,-0.0025249430909752846,-0.0020269318483769894,-0.00010705907334340736,0.0052490234375,-0.0154571533203125,-1.0009307861328125,106.82414245605469,-25.3533935546875,-41.97906494140625,2023-09-09 21:56:50.2450,1694314610.245204,0.008883358910679817,-0.002231127582490444,0.0003172605065628886,0.03692632541060448,0.45133963227272034,-0.8852386474609375,
0,2023-09-09 21:56:43.3680,02:41,10,1,2023-09-09 21:56:50.6680,1694314610.668144,-7.456851017195731e-05,-0.0021374530624598265,-0.0026314693968743086,0.0056304931640625,-0.0153350830078125,-1.0022735595703125,106.85482788085938,-25.477386474609375,-42.16593933105469,2023-09-09 21:56:50.3450,1694314610.3452191,0.01637083664536476,0.002462959848344326,0.001619146903976798,0.037338316440582275,0.4629210829734802,-0.8856964111328125,
0,2023-09-09 21:56:43.3680,02:41,10,1,2023-09-09 21:56:50.7690,1694314610.768702,-0.0006042712484486401,-0.0054360441863536835,-0.003358778776600957,0.006072998046875,-0.0156097412109375,-1.0008697509765625,106.82963562011719,-25.569992065429688,-42.193939208984375,2023-09-09 21:56:50.4450,1694314610.4448938,-0.00634239986538887,0.002470550127327442,-0.002607855712994933,0.039627138525247574,0.4505614638328552,-0.8888702392578125,
0,2023-09-09 21:56:43.3680,02:41,10,1,2023-09-09 21:56:50.8690,1694314610.868806,-0.0025427863001823425,-0.0075902752578258514,-0.004892493132501841,0.00567626953125,-0.01483154296875,-1.0002288818359375,106.84658813476562,-25.436965942382812,-42.45634460449219,2023-09-09 21:56:50.5450,1694314610.544783,0.12426461279392242,-0.016189154237508774,0.014454218558967113,0.03662114962935448,0.4613341987133026,-0.8887481689453125,
0,2023-09-09 21:56:43.3680,02:41,10,1,2023-09-09 21:56:50.9680,1694314610.968186,-0.0013859090395271778,-0.004465588368475437,-0.0012381036067381501,0.0072174072265625,-0.01422119140625,-1.0006561279296875,106.91412353515625,-25.67315673828125,-41.90995788574219,2023-09-09 21:56:50.6450,1694314610.644573,-0.05580155923962593,0.020861007273197174,0.00311887264251709,0.03248602896928787,0.4448394477367401,-0.8893585205078125,
0,2023-09-09 21:56:43.3680,02:41,10,1,2023-09-09 21:56:51.0680,1694314611.067727,0.0015662050573155284,-0.0007720504072494805,-0.0030104373581707478,0.0068359375,-0.015167236328125,-1.001495361328125,106.810546875,-25.501068115234375,-42.10423278808594,2023-09-09 21:56:50.7440,1694314610.744443,-0.0005924345459789038,0.003211574163287878,-0.00026503956178203225,0.03709417209029198,0.4498595595359802,-0.88861083984375,
0,2023-09-09 21:56:43.3680,02:41,10,1,2023-09-09 21:56:51.1680,1694314611.168048,-0.000898550555575639,-0.0027025758754462004,-0.004425374791026115,0.0062255859375,-0.014404296875,-1.0018768310546875,106.90338134765625,-25.425216674804688,-42.33204650878906,2023-09-09 21:56:50.8440,1694314610.844264,-0.09641090780496597,0.01115032471716404,-0.00455469312146306,0.038818422704935074,0.4459838569164276,-0.88763427734375,
0,2023-09-09 21:56:43.3680,02:41,10,1,2023-09-09 21:56:51.2680,1694314611.268013,-0.0007491472060792148,-0.0026647590566426516,-0.003171824850142002,0.005859375,-0.0149078369140625,-1.0016021728515625,106.84864807128906,-25.679290771484375,-42.37713623046875,2023-09-09 21:56:50.9440,1694314610.944164,0.03699561953544617,-0.005888846702873707,0.00044765550410375,0.04396062344312668,0.4514159560203552,-0.8863524794578552,
0,2023-09-09 21:56:43.3680,02:41,10,1,2023-09-09 21:56:51.3700,1694314611.369563,-0.001204547705128789,-0.0017291904659941792,-0.0012333098566159606,0.005889892578125,-0.014923095703125,-1.001220703125,106.87391662597656,-25.404327392578125,-42.11268615722656,2023-09-09 21:56:51.0440,1694314611.044174,0.014966084621846676,0.0024242112413048744,0.0014173791278153658,0.04104620963335037,0.4581145644187927,-0.8855133056640625,
0,2023-09-09 21:56:43.3680,02:41,10,1,2023-09-09 21:56:51.4680,1694314611.468072,-0.0036165728233754635,-0.006329002324491739,-0.002734001260250807,0.006744384765625,-0.0144500732421875,-1.0005340576171875,106.92648315429688,-25.362701416015625,-41.93992614746094,2023-09-09 21:56:51.1440,1694314611.143979,-0.019521983340382576,0.001989583019167185,-0.007926787249743938,0.04107672721147537,0.4501495063304901,-0.8873138427734375,
0,2023-09-09 21:56:43.3680,02:41,10,1,2023-09-09 21:56:51.5680,1694314611.56777,-0.0006237123161554337,-0.005185973364859819,-0.004988633096218109,0.007537841796875,-0.01458740234375,-1.0008697509765625,106.92326354980469,-25.355422973632812,-42.05018615722656,2023-09-09 21:56:51.2440,1694314611.2436152,0.04195442795753479,-0.005241164937615395,-0.0008656823192723095,0.039917055517435074,0.4501342475414276,-0.886566162109375,
0,2023-09-09 21:56:43.3680,02:41,10,1,2023-09-09 21:56:51.6680,1694314611.667995,-0.0036882117856293917,-0.005732454359531403,-0.0036330842413008213,0.00640869140625,-0.0145416259765625,-1.001800537109375,106.92326354980469,-25.355422973632812,-42.05018615722656,2023-09-09 21:56:51.3430,1694314611.343377,-0.015160659328103065,0.007869044318795204,0.005637424066662788,0.03875738009810448,0.4596099555492401,-0.8892365097999573,
0,2023-09-09 21:56:43.3680,02:41,10,1,2023-09-09 21:56:51.7810,1694314611.781487,-0.0036107138730585575,-0.0008165251929312944,-0.005092762876302004,0.006378173828125,-0.014495849609375,-1.0007781982421875,106.87628173828125,-25.522628784179688,-42.188751220703125,2023-09-09 21:56:51.4430,1694314611.443378,-0.009257495403289795,0.004857008345425129,-0.002937555080279708,0.03784184902906418,0.4564513862133026,-0.8875274658203125,
0,2023-09-09 21:56:43.3680,02:41,10,1,2023-09-09 21:56:51.8810,1694314611.880518,0.0005254416610114276,-0.0015536881983280182,-0.0018218684708699584,0.006500244140625,-0.0138092041015625,-1.00146484375,106.86126708984375,-25.416656494140625,-41.67539978027344,2023-09-09 21:56:51.5430,1694314611.5432692,-0.03157518431544304,0.008085026405751705,-0.0009017681586556137,0.041503969579935074,0.4475249946117401,-0.8873138427734375,
0,2023-09-09 21:56:43.3680,02:41,10,1,2023-09-09 21:56:51.9680,1694314611.968271,-0.002198705682530999,-0.005968144163489342,-0.0033563817851245403,0.008087158203125,-0.0154876708984375,-0.999786376953125,106.86126708984375,-25.416656494140625,-41.67539978027344,2023-09-09 21:56:51.6430,1694314611.6431231,0.0014799705240875483,-0.0008184537291526794,-0.0023971330374479294,0.038894712924957275,0.4448089003562927,-0.888671875,
0,2023-09-09 21:56:43.3680,02:41,10,1,2023-09-09 21:56:52.0690,1694314612.0685148,-0.0014919028617441654,-0.006028597708791494,-0.004634965676814318,0.008392333984375,-0.0151824951171875,-1.000244140625,106.75714111328125,-25.333251953125,-41.76106262207031,2023-09-09 21:56:51.7430,1694314611.742888,0.0021504214964807034,-0.0006730454042553902,0.0025015519931912422,0.04063421115279198,0.4515838325023651,-0.8877716064453125,
0,2023-09-09 21:56:43.3680,02:41,10,1,2023-09-09 21:56:52.1780,1694314612.178409,-0.003976366017013788,-0.0036706349346786737,-0.0009683253592811525,0.006378173828125,-0.01397705078125,-1.0018768310546875,107.10954284667969,-25.379241943359375,-41.53788757324219,2023-09-09 21:56:51.8430,1694314611.842792,0.0268999096006155,-0.0037672389298677444,0.003786427201703191,0.040252748876810074,0.4607390761375427,-0.8854523301124573,
0,2023-09-09 21:56:43.3680,02:41,10,1,2023-09-09 21:56:52.2680,1694314612.267881,-0.002861832967028022,-0.0020455741323530674,-0.0033569145016372204,0.005767822265625,-0.0140380859375,-1.0009307861328125,107.10954284667969,-25.379241943359375,-41.53788757324219,2023-09-09 21:56:51.9420,1694314611.942478,-0.009759102016687393,-0.0015340447425842285,0.0027693994343280792,0.039367735385894775,0.4528655707836151,-0.889404296875,
0,2023-09-09 21:56:43.3680,02:41,10,1,2023-09-09 21:56:52.3680,1694314612.3680449,-0.0010705908061936498,-0.004637895151972771,-0.004555603489279747,0.004791259765625,-0.014892578125,-1.000732421875,106.93608093261719,-25.734054565429688,-42.31187438964844,2023-09-09 21:56:52.0420,1694314612.042468,0.0442640520632267,0.009900237433612347,0.036217305809259415,0.032501280307769775,0.4450683295726776,-0.884521484375,
0,2023-09-09 21:56:43.3680,02:41,10,1,2023-09-09 21:56:52.4680,1694314612.467842,0.0016192019684240222,-0.006881608162075281,-0.0033401367254555225,0.0072479248046875,-0.0153350830078125,-1.0008544921875,106.94743347167969,-25.65997314453125,-42.26954650878906,2023-09-09 21:56:52.1420,1694314612.142192,-0.13973313570022583,0.02249206230044365,0.016704823821783066,0.04779057949781418,0.4626616835594177,-0.9107208251953125,
0,2023-09-09 21:56:43.3680,02:41,10,1,2023-09-09 21:56:52.5680,1694314612.568403,0.00024501082953065634,-0.005043228156864643,-0.0033124396577477455,0.008514404296875,-0.0136566162109375,-1.0,106.82110595703125,-25.792800903320312,-42.263031005859375,2023-09-09 21:56:52.2420,1694314612.2422261,0.0681392252445221,0.005880062002688646,0.02032891847193241,0.04493718966841698,0.457305908203125,-0.8850250244140625,
0,2023-09-09 21:56:43.3680,02:41,10,1,2023-09-09 21:56:52.6690,1694314612.668812,0.0022245384752750397,-0.0017994979862123728,-0.004911135416477919,0.0059051513671875,-0.014801025390625,-1.000885009765625,106.84799194335938,-25.818527221679688,-42.31500244140625,2023-09-09 21:56:52.3420,1694314612.342036,0.04205169901251793,0.005469402298331261,0.005680867005139589,0.04759223014116287,0.4540099501609802,-0.8930206298828125,
0,2023-09-09 21:56:43.3680,02:41,10,1,2023-09-09 21:56:52.7680,1694314612.7677,-0.00010333064710721374,-0.00583738274872303,-0.0031284152064472437,0.00518798828125,-0.014617919921875,-1.0006561279296875,106.83807373046875,-25.659683227539062,-42.19410705566406,2023-09-09 21:56:52.4420,1694314612.44174,-0.008751694113016129,-0.035549137741327286,-0.014257887378334999,0.05938726291060448,0.4435119330883026,-0.8888092041015625,
0,2023-09-09 21:56:43.3680,02:41,10,1,2023-09-09 21:56:52.8680,1694314612.867787,-0.002659965306520462,-0.003695935010910034,-0.005133775528520346,0.00634765625,-0.01654052734375,-1.0028228759765625,106.85223388671875,-25.671585083007812,-42.34553527832031,2023-09-09 21:56:52.5420,1694314612.541553,0.0776154175400734,-0.11383435130119324,-0.004853066522628069,0.043808046728372574,0.4383544623851776,-0.9046631455421448,
0,2023-09-09 21:56:43.3680,02:41,10,1,2023-09-09 21:56:52.9790,1694314612.9785938,-0.0010404969798400998,-0.006223274860531092,-0.0016652746126055717,0.0055389404296875,-0.015380859375,-1.0019683837890625,106.81729125976562,-25.281570434570312,-42.28749084472656,2023-09-09 21:56:52.6410,1694314612.641463,0.17742756009101868,-0.007807120680809021,0.10461374372243881,0.06924444809556007,0.4153289198875427,-0.901397705078125,
0,2023-09-09 21:56:43.3680,02:41,10,1,2023-09-09 21:56:53.0680,1694314613.068297,-0.001112668658606708,-0.00315984059125185,-0.002811499172821641,0.0061187744140625,-0.0149688720703125,-1.0012054443359375,106.881103515625,-25.394287109375,-41.95643615722656,2023-09-09 21:56:52.7410,1694314612.7412949,0.3586743175983429,-0.04962886869907379,0.1509293019771576,0.04235845431685448,0.4321288764476776,-0.859405517578125,
0,2023-09-09 21:56:43.3680,02:41,10,1,2023-09-09 21:56:53.1680,1694314613.167973,-0.0011976235546171665,-0.0029971215408295393,-0.004064250271767378,0.00811767578125,-0.0141143798828125,-1.0003204345703125,106.71961975097656,-25.48046875,-42.19062805175781,2023-09-09 21:56:52.8410,1694314612.841178,-0.33674854040145874,-0.08790062367916107,0.057520728558301926,0.07878118380904198,0.4071502387523651,-0.8541107177734375,
0,2023-09-09 21:56:43.3680,02:41,10,1,2023-09-09 21:56:53.2690,1694314613.2691321,-0.002840793924406171,-0.004195277579128742,-0.00034115093876607716,0.00555419921875,-0.014984130859375,-1.0004119873046875,106.8338623046875,-25.5845947265625,-41.88310241699219,2023-09-09 21:56:52.9410,1694314612.9408898,-1.0202738046646118,-0.02892172709107399,-0.041486479341983795,0.08770758658647537,0.3038176894187927,-0.8371124267578125,
0,2023-09-09 21:56:43.3680,02:41,10,1,2023-09-09 21:56:53.3690,1694314613.3687382,-0.0020354539155960083,-0.0038000645581632853,-0.0023728765081614256,0.005523681640625,-0.01544189453125,-1.0018310546875,106.70364379882812,-25.335296630859375,-41.987701416015625,2023-09-09 21:56:53.0410,1694314613.04077,-0.0022954598534852266,-0.02285398170351982,0.0488436184823513,0.11410527303814888,0.4796141982078552,-0.838531494140625,
0,2023-09-09 21:56:43.3680,02:41,10,1,2023-09-09 21:56:53.4690,1694314613.4685512,0.0005371595616452396,-0.0057252636179327965,-0.007407050114125013,0.00567626953125,-0.015380859375,-1.0009918212890625,106.87727355957031,-25.563796997070312,-42.0155029296875,2023-09-09 21:56:53.1410,1694314613.1405911,-0.16331909596920013,-0.03041895478963852,-0.023504283279180527,0.01838691160082817,0.468292236328125,-0.816497802734375,
0,2023-09-09 21:56:43.3680,02:41,10,1,2023-09-09 21:56:53.5680,1694314613.5679631,-0.0019267969764769077,-0.004674113821238279,-0.0006077333819121122,0.006500244140625,-0.0148162841796875,-1.0008392333984375,106.88818359375,-25.44732666015625,-42.03599548339844,2023-09-09 21:56:53.2400,1694314613.240489,-0.1182236596941948,-0.0625462606549263,-0.0883077085018158,-0.002838071435689926,0.4966735243797302,-0.844818115234375,
0,2023-09-09 21:56:43.3680,02:41,10,1,2023-09-09 21:56:53.6680,1694314613.66827,0.0003920173039659858,-0.002959837205708027,-0.0029148298781365156,0.0072021484375,-0.01470947265625,-1.0009765625,106.77546691894531,-25.410369873046875,-42.05818176269531,2023-09-09 21:56:53.3400,1694314613.340293,-0.35512328147888184,-0.00635942630469799,-0.14394953846931458,0.031250059604644775,0.4438475966453552,-0.8153839111328125,
0,2023-09-09 21:56:43.3680,02:41,10,1,2023-09-09 21:56:53.7690,1694314613.768642,0.0015345134306699038,-0.0033505228348076344,-0.003694869577884674,0.0063934326171875,-0.0155181884765625,-1.0008392333984375,106.87678527832031,-25.602218627929688,-42.181243896484375,2023-09-09 21:56:53.4400,1694314613.440258,-0.6777361631393433,-0.021800566464662552,-0.16769617795944214,-0.06300348415970802,0.3428191542625427,-0.860076904296875,
0,2023-09-09 21:56:43.3680,02:41,10,1,2023-09-09 21:56:53.8810,1694314613.881237,0.000618918624240905,-0.0018586200894787908,-0.003912716172635555,0.006439208984375,-0.0146331787109375,-1.002044677734375,106.6163330078125,-25.35516357421875,-42.26318359375,2023-09-09 21:56:53.5400,1694314613.5399342,-0.3605210483074188,-0.06700693070888519,-0.22348400950431824,-0.02507014013826847,0.3847350478172302,-0.8970184326171875,
0,2023-09-09 21:56:43.3680,02:41,10,1,2023-09-09 21:56:53.9680,1694314613.967523,0.00044900894863530993,-0.0049763829447329044,-0.003099919529631734,0.0072021484375,-0.0147552490234375,-0.9996490478515625,106.80581665039062,-25.420501708984375,-42.58738708496094,2023-09-09 21:56:53.6400,1694314613.639929,-0.0985737219452858,-0.05313398689031601,-0.09926292300224304,-0.05364982225000858,0.5948333740234375,-0.8501739501953125,
0,2023-09-09 21:56:43.3680,02:41,10,1,2023-09-09 21:56:54.0690,1694314614.0687819,-0.0030061763245612383,-0.00526586826890707,-0.0017752632265910506,0.006744384765625,-0.014190673828125,-1.0012359619140625,106.891357421875,-25.400238037109375,-42.49481201171875,2023-09-09 21:56:53.7400,1694314613.739774,-0.27085253596305847,-0.22226682305335999,-0.45327651500701904,0.00039677694439888,0.5639647841453552,-0.8414765000343323,
0,2023-09-09 21:56:43.3680,02:41,10,1,2023-09-09 21:56:54.1680,1694314614.1682801,-0.0036434705834835768,-0.004310059826821089,-0.003864513011649251,0.007080078125,-0.014312744140625,-1.0006866455078125,107.00775146484375,-25.698211669921875,-42.11456298828125,2023-09-09 21:56:53.8400,1694314613.8396192,-0.07172752916812897,-0.056621797382831573,-0.5113672018051147,-0.006576478481292725,0.5641326308250427,-0.9225311279296875,
0,2023-09-09 21:56:43.3680,02:41,10,1,2023-09-09 21:56:54.2690,1694314614.2685351,-0.00041758365114219487,-0.001088966615498066,-0.0037446708884090185,0.0071563720703125,-0.0145721435546875,-1.000823974609375,106.81863403320312,-25.680648803710938,-42.406982421875,2023-09-09 21:56:53.9390,1694314613.9392262,-0.7951769232749939,-0.2171836495399475,-0.8731920719146729,-0.06761163473129272,0.3056487441062927,-0.8000030517578125,
0,2023-09-09 21:56:43.3680,02:41,10,1,2023-09-09 21:56:54.3690,1694314614.3687658,-0.0031193606555461884,-0.0048922267742455006,-0.002579005202278495,0.005615234375,-0.0147247314453125,-0.999298095703125,106.82589721679688,-25.619644165039062,-42.285369873046875,2023-09-09 21:56:54.0390,1694314614.039109,-1.0149872303009033,-0.4909586012363434,-0.574177086353302,-0.16864006221294403,0.3760985732078552,-0.8562775254249573,
0,2023-09-09 21:56:43.3680,02:41,10,1,2023-09-09 21:56:54.4680,1694314614.46846,-0.004328968469053507,-0.0033214944414794445,-0.003287405939772725,0.006103515625,-0.0142059326171875,-1.00115966796875,106.78509521484375,-25.430343627929688,-42.07179260253906,2023-09-09 21:56:54.1390,1694314614.139151,-1.669908881187439,-0.8019059896469116,-0.01787073165178299,-0.30329887568950653,0.7747954726219177,-0.5864104628562927,
0,2023-09-09 21:56:43.3680,02:41,10,1,2023-09-09 21:56:54.5680,1694314614.568359,-0.00261841993778944,-0.002332396572455764,-0.004551075864583254,0.0066680908203125,-0.0146484375,-1.0012664794921875,106.75587463378906,-25.417205810546875,-42.14137268066406,2023-09-09 21:56:54.2390,1694314614.238953,-2.5064964294433594,0.0036774948239326477,0.7706905603408813,-0.29377737641334534,0.801055908203125,-0.517852783203125,
0,2023-09-09 21:56:43.3680,02:41,10,1,2023-09-09 21:56:54.6680,1694314614.668308,-0.0026399914640933275,-0.006873352453112602,-0.0006711165769957006,0.0062408447265625,-0.0139007568359375,-1.00018310546875,106.85960388183594,-25.442047119140625,-42.277069091796875,2023-09-09 21:56:54.3390,1694314614.338836,-2.9534831047058105,0.42525896430015564,0.7334744334220886,-0.13401785492897034,0.663909912109375,-0.4024048149585724,
0,2023-09-09 21:56:43.3680,02:41,10,1,2023-09-09 21:56:54.7800,1694314614.7804031,-0.0004956142511218786,-0.005824067164212465,-0.002350239548832178,0.00701904296875,-0.014251708984375,-1.0010986328125,106.80427551269531,-25.524658203125,-41.81217956542969,2023-09-09 21:56:54.4390,1694314614.438694,0.9981454014778137,0.6508595943450928,0.3099784553050995,-0.12846368923783302,0.9802855849266052,-0.2466430962085724,
0,2023-09-09 21:56:43.3680,02:41,10,1,2023-09-09 21:56:54.8680,1694314614.868191,-0.0035683694295585155,-0.0016815199051052332,-0.0026639599818736315,0.00701904296875,-0.014251708984375,-1.0010986328125,107.002685546875,-25.316085815429688,-41.78086853027344,2023-09-09 21:56:54.5380,1694314614.53848,0.5450572967529297,-0.4048134684562683,0.5716694593429565,0.07124335691332817,0.9855193495750427,-0.3461761474609375,
0,2023-09-09 21:56:43.3680,02:41,10,1,2023-09-09 21:56:54.9680,1694314614.968347,-0.001621332485228777,-0.002569950418546796,-0.002621615771204233,0.0065765380859375,-0.0146026611328125,-1.00213623046875,106.92570495605469,-25.43011474609375,-41.99479675292969,2023-09-09 21:56:54.6380,1694314614.638294,0.07751628011465073,-0.38436371088027954,0.5670256614685059,0.14552313834428787,0.9495545029640198,-0.1648254692554474,
0,2023-09-09 21:56:43.3680,02:41,10,1,2023-09-09 21:56:55.0680,1694314615.067912,-0.004376638680696487,-0.0017395768081769347,-0.0021640846971422434,0.005340576171875,-0.014892578125,-1.0033416748046875,106.81045532226562,-25.196380615234375,-42.1351318359375,2023-09-09 21:56:54.7380,1694314614.738006,1.5964330434799194,-0.5588843822479248,0.6831406950950623,0.13533024862408638,1.3071288466453552,-0.6219635605812073,
0,2023-09-09 21:56:43.3680,02:41,10,1,2023-09-09 21:56:55.1680,1694314615.16802,-0.0012005530297756195,-0.0017355820164084435,-0.0010700580896809697,0.004852294921875,-0.015625,-1.00152587890625,106.84855651855469,-25.422988891601562,-41.871612548828125,2023-09-09 21:56:54.8380,1694314614.838132,1.294485092163086,-0.09384333342313766,0.18286196887493134,0.10766608268022537,0.9453429579734802,-0.3271331787109375,
0,2023-09-09 21:56:43.3680,02:41,10,1,2023-09-09 21:56:55.2680,1694314615.2681189,0.002064748667180538,-0.006131928414106369,-0.003668504301458597,0.0065460205078125,-0.0151519775390625,-1.0011138916015625,106.93019104003906,-25.6561279296875,-42.23017883300781,2023-09-09 21:56:54.9380,1694314614.9377089,0.4486221969127655,0.004219980910420418,-0.03537152707576752,0.09661872684955597,0.7796630859375,-0.4280548691749573,
0,2023-09-09 21:56:43.3680,02:41,10,1,2023-09-09 21:56:55.3690,1694314615.3685188,-0.0012420982820913196,-0.003454386256635189,-0.00370179396122694,0.0058746337890625,-0.0148468017578125,-1.0019073486328125,106.92768859863281,-25.312973022460938,-42.28669738769531,2023-09-09 21:56:55.0380,1694314615.0375528,0.11544914543628693,0.07564116269350052,-0.25637733936309814,-0.0010832995176315308,0.8902435302734375,-0.4562530517578125,
0,2023-09-09 21:56:43.3680,02:41,10,1,2023-09-09 21:56:55.4690,1694314615.468871,-0.00041092574247159064,-0.006066947244107723,-0.0032621060963720083,0.005767822265625,-0.0153961181640625,-1.001861572265625,106.9078369140625,-25.2586669921875,-42.40144348144531,2023-09-09 21:56:55.1370,1694314615.137402,-0.5169788002967834,-0.19213607907295227,-0.09705070406198502,0.15058902651071548,0.4804686903953552,-0.296966552734375,
0,2023-09-09 21:56:43.3680,02:41,10,1,2023-09-09 21:56:55.5680,1694314615.568218,-0.0005845638806931674,-0.004543885588645935,-0.0021142836194485426,0.005096435546875,-0.014617919921875,-1.0001983642578125,106.9794921875,-25.280853271484375,-42.243133544921875,2023-09-09 21:56:55.2370,1694314615.237236,0.2283451408147812,0.40968212485313416,-0.4659315347671509,-0.022766049951314926,0.6293792128562927,-0.6377716064453125,
0,2023-09-09 21:56:43.3680,02:41,10,1,2023-09-09 21:56:55.6680,1694314615.668172,-0.002484462922438979,-0.004752144683152437,-0.0014508900931105018,0.0053863525390625,-0.014556884765625,-1.0020751953125,106.98910522460938,-25.310882568359375,-42.03755187988281,2023-09-09 21:56:55.3370,1694314615.337222,-0.977929413318634,0.4636574983596802,-0.35238221287727356,-0.07014459371566772,0.8854674696922302,-0.4715576767921448,
0,2023-09-09 21:56:43.3680,02:41,10,1,2023-09-09 21:56:55.7690,1694314615.768684,-0.0009731190511956811,-0.005879993550479412,-0.0030328077264130116,0.0056915283203125,-0.0153045654296875,-1.001251220703125,107.06217956542969,-25.45013427734375,-42.483734130859375,2023-09-09 21:56:55.4370,1694314615.437042,-0.2660472095012665,-0.3139271140098572,0.0988420695066452,0.17477422952651978,0.84381103515625,-0.3966827690601349,
0,2023-09-09 21:56:43.3680,02:41,10,1,2023-09-09 21:56:55.8690,1694314615.8685899,-0.0029798108153045177,-0.0043747746385633945,-0.0020383833907544613,0.006683349609375,-0.0146636962890625,-1.0010528564453125,106.93092346191406,-25.634033203125,-42.38276672363281,2023-09-09 21:56:55.5370,1694314615.536769,0.6229512095451355,0.11684892326593399,0.1904413402080536,0.07498177140951157,0.9839783310890198,-0.6464996933937073,
0,2023-09-09 21:56:43.3680,02:41,10,1,2023-09-09 21:56:55.9830,1694314615.983233,-0.001588841900229454,-0.004686897154897451,-0.0023403859231621027,0.0053253173828125,-0.0147247314453125,-1.0017242431640625,106.82940673828125,-25.468185424804688,-42.213287353515625,2023-09-09 21:56:55.6370,1694314615.636663,0.4553098678588867,0.4510687291622162,-0.09721355885267258,-0.07225030660629272,0.913909912109375,-0.5786895751953125,
0,2023-09-09 21:56:43.3680,02:41,10,1,2023-09-09 21:56:56.0820,1694314616.0815449,-0.0008484831196255982,-0.0038602519780397415,-0.005765477195382118,0.005767822265625,-0.0151214599609375,-1.000701904296875,106.8541259765625,-25.59515380859375,-42.19158935546875,2023-09-09 21:56:55.7360,1694314615.736456,0.14265985786914825,0.008181698620319366,-0.044535063207149506,-0.15342706441879272,0.6474151611328125,-0.6833343505859375,
0,2023-09-09 21:56:43.3680,02:41,10,1,2023-09-09 21:56:56.1690,1694314616.169084,-3.009372085216455e-05,-0.004457865376025438,-0.005107676610350609,0.005767822265625,-0.0151214599609375,-1.000701904296875,107.02113342285156,-25.516311645507812,-42.09504699707031,2023-09-09 21:56:55.8360,1694314615.836434,0.21030063927173615,-0.12610194087028503,0.3803001642227173,0.16041572764515877,0.9060821533203125,-0.42144775390625,
0,2023-09-09 21:56:43.3680,02:41,10,1,2023-09-09 21:56:56.2680,1694314616.268214,-0.0012418320402503014,-0.003707386553287506,-0.0032764871139079332,0.0060272216796875,-0.014617919921875,-1.001373291015625,106.84124755859375,-25.6431884765625,-42.15179443359375,2023-09-09 21:56:55.9360,1694314615.93625,-0.215688094496727,-0.11395420134067535,-0.02117198519408703,-0.00024409592151641846,0.5270537734031677,-0.7265625,
0,2023-09-09 21:56:43.3680,02:41,10,1,2023-09-09 21:56:56.3830,1694314616.382934,-0.00033875409280881286,-0.0019377160351723433,-0.0023840616922825575,0.0056610107421875,-0.0153350830078125,-1.001129150390625,106.75337219238281,-25.414016723632812,-42.138580322265625,2023-09-09 21:56:56.0360,1694314616.035979,0.355299711227417,0.09507318586111069,0.006042890250682831,0.017807066440582275,0.8755950331687927,-0.53253173828125,
0,2023-09-09 21:56:43.3680,02:41,10,1,2023-09-09 21:56:56.4680,1694314616.4682899,-0.003058374160900712,-0.0033518546260893345,-0.003781156148761511,0.0056610107421875,-0.0153350830078125,-1.001129150390625,106.85520935058594,-25.215286254882812,-42.20729064941406,2023-09-09 21:56:56.1360,1694314616.135782,0.17919151484966278,0.05663471668958664,0.02079147659242153,-0.03427116572856903,0.825469970703125,-0.5378265380859375,
0,2023-09-09 21:56:43.3680,02:41,10,1,2023-09-09 21:56:56.5680,1694314616.5682402,-0.0006519418093375862,-0.005548696033656597,-0.004776379559189081,0.006744384765625,-0.0154266357421875,-1.0023345947265625,106.87828063964844,-25.466796875,-41.76847839355469,2023-09-09 21:56:56.2360,1694314616.235734,-0.1549520492553711,-0.07021576911211014,-0.22271043062210083,0.15147407352924347,0.5213164687156677,-0.66925048828125,
0,2023-09-09 21:56:43.3680,02:41,10,1,2023-09-09 21:56:56.6680,1694314616.667815,-1.0120012120751198e-05,-0.006478139199316502,-0.002177134156227112,0.00555419921875,-0.0166168212890625,-1.0037841796875,107.03880310058594,-25.485321044921875,-41.81608581542969,2023-09-09 21:56:56.3360,1694314616.335633,0.6101523041725159,-0.06683861464262009,-0.1167316660284996,-0.012725800275802612,0.9159849882125854,-0.5431671142578125,
0,2023-09-09 21:56:43.3680,02:41,10,1,2023-09-09 21:56:56.7810,1694314616.781178,-0.0002793656021822244,-0.004483697935938835,-0.0016407734947279096,0.00506591796875,-0.0145721435546875,-1.0014801025390625,106.91506958007812,-25.280380249023438,-42.2071533203125,2023-09-09 21:56:56.4350,1694314616.435183,-0.021158762276172638,0.12438313663005829,-0.13253022730350494,0.18240363895893097,0.6141662001609802,-0.618011474609375,
0,2023-09-09 21:56:43.3680,02:41,10,1,2023-09-09 21:56:56.8680,1694314616.8677,0.00011930961773032323,-0.004337756894528866,-0.002913498319685459,0.00506591796875,-0.0145721435546875,-1.0014801025390625,106.92794799804688,-25.4681396484375,-42.288543701171875,2023-09-09 21:56:56.5350,1694314616.535296,0.23442886769771576,-0.1540536880493164,-0.16019132733345032,0.2818451449275017,0.9024657607078552,-0.7237548828125,
0,2023-09-09 21:56:43.3680,02:41,10,1,2023-09-09 21:56:56.9680,1694314616.9683762,-0.0008370315190404654,-0.0033012544736266136,-0.0019228023011237383,0.006103515625,-0.0125732421875,-0.9977569580078125,106.9156494140625,-25.748077392578125,-42.06806945800781,2023-09-09 21:56:56.6350,1694314616.635244,0.35283535718917847,-0.08307630568742752,-0.13665160536766052,0.012054502964019775,0.6193694472312927,-0.557830810546875,
0,2023-09-09 21:56:43.3680,02:41,10,1,2023-09-09 21:56:57.0670,1694314617.0674849,-0.0024085629265755415,-0.003349723992869258,-0.0025249430909752846,0.00592041015625,-0.0109710693359375,-0.9996337890625,106.86058044433594,-25.422103881835938,-42.176300048828125,2023-09-09 21:56:56.7350,1694314616.734881,0.1919575035572052,0.07977066189050674,-0.15849752724170685,0.09104926884174347,0.7337645888328552,-0.5091248154640198,
0,2023-09-09 21:56:43.3680,02:41,10,1,2023-09-09 21:56:57.1680,1694314617.168395,-7.696535612922162e-05,-0.010973555035889149,-0.0011739213950932026,0.0045928955078125,-0.0120391845703125,-0.999359130859375,107.12863159179688,-25.611083984375,-42.27748107910156,2023-09-09 21:56:56.8350,1694314616.834817,0.04903903231024742,0.13276344537734985,-0.0914391577243805,0.01466376706957817,0.8057097792625427,-0.6133881211280823,
0,2023-09-09 21:56:43.3680,02:41,10,1,2023-09-09 21:56:57.2680,1694314617.26797,-0.0018745990237221122,-0.005868275184184313,-0.0017710020765662193,0.0008544921875,-0.0149688720703125,-0.9965667724609375,106.92083740234375,-25.484085083007812,-42.75480651855469,2023-09-09 21:56:56.9350,1694314616.934628,0.3004467487335205,0.03554607927799225,-0.031479548662900925,0.03315742313861847,0.9409636855125427,-0.7832335829734802,
0,2023-09-09 21:56:43.3680,02:41,10,1,2023-09-09 21:56:57.3680,1694314617.367893,0.006591057404875755,-0.0029031119775027037,0.0026224146131426096,0.006927490234375,-0.016754150390625,-1.00396728515625,107.12063598632812,-25.448776245117188,-41.83131408691406,2023-09-09 21:56:57.0340,1694314617.034406,0.5422677397727966,-0.037461817264556885,-0.1568424552679062,0.06773383170366287,0.9185028076171875,-0.631805419921875,
0,2023-09-09 21:56:43.3680,02:41,10,1,2023-09-09 21:56:57.4690,1694314617.468979,0.001020523370243609,-0.010478739626705647,-0.005652825813740492,0.0037384033203125,-0.0213165283203125,-1.001861572265625,106.95574951171875,-25.409042358398438,-42.24931335449219,2023-09-09 21:56:57.1340,1694314617.134276,0.41809770464897156,-0.039837758988142014,0.04909228906035423,0.19787602871656418,0.9094542860984802,-0.5770721435546875,
0,2023-09-09 21:56:43.3680,02:41,10,1,2023-09-09 21:56:57.5690,1694314617.568656,-0.004256796557456255,-0.000990429543890059,-0.00953651312738657,0.0042877197265625,-0.022491455078125,-1.0030517578125,107.0550537109375,-25.443603515625,-42.231353759765625,2023-09-09 21:56:57.2340,1694314617.234107,-0.053838279098272324,0.08317418396472931,0.011340850032866001,0.026977602392435074,0.7857207655906677,-0.591278076171875,
0,2023-09-09 21:56:43.3680,02:41,10,1,2023-09-09 21:56:57.6680,1694314617.667904,0.003742007538676262,-0.010750382207334042,-0.003579821204766631,0.004302978515625,-0.01513671875,-1.002716064453125,106.97309875488281,-25.2861328125,-42.219757080078125,2023-09-09 21:56:57.3340,1694314617.3338618,-0.13007107377052307,-0.03846316784620285,-0.0053061372600495815,0.10289006307721138,0.6374053359031677,-0.6357421875,
0,2023-09-09 21:56:43.3680,02:41,10,1,2023-09-09 21:56:57.7670,1694314617.7674909,2.2636868379777297e-05,-0.0072778863832354546,-0.0010343717876821756,0.010223388671875,-0.0145416259765625,-1.00128173828125,106.94223022460938,-25.391845703125,-42.15364074707031,2023-09-09 21:56:57.4340,1694314617.433689,0.57923823595047,-0.05258764326572418,0.029639562591910362,0.08506779745221138,0.9230956435203552,-0.6295623183250427,
0,2023-09-09 21:56:43.3680,02:41,10,1,2023-09-09 21:56:57.8680,1694314617.867974,-0.0033007217571139336,0.0031164311803877354,-0.0046416232362389565,0.0091094970703125,-0.0181427001953125,-1.00067138671875,106.84278869628906,-25.351165771484375,-42.110809326171875,2023-09-09 21:56:57.5340,1694314617.533761,0.3953529894351959,0.04463345184922218,-0.03133637458086014,0.03482061251997948,0.8579100966453552,-0.6259918808937073,
0,2023-09-09 21:56:43.3680,02:41,10,1,2023-09-09 21:56:57.9810,1694314617.981203,-0.0003251719754189253,-0.0035545211285352707,-0.0040855552069842815,0.0067138671875,-0.01641845703125,-1.00701904296875,107.10176086425781,-25.452667236328125,-42.069061279296875,2023-09-09 21:56:57.6330,1694314617.633415,-0.08677632361650467,0.09691516309976578,0.005409357603639364,0.06367499753832817,0.7781981825828552,-0.6217193603515625,
0,2023-09-09 21:56:43.3680,02:41,10,1,2023-09-09 21:56:58.0680,1694314618.068073,-0.0026695525739341974,-0.004848817363381386,-0.004700745455920696,0.008148193359375,-0.016845703125,-1.0031890869140625,107.00543212890625,-25.267196655273438,-41.93031311035156,2023-09-09 21:56:57.7330,1694314617.7332978,-0.2983752489089966,-0.045651305466890335,-0.09437096863985062,0.13223272189497948,0.5482940673828125,-0.5937042236328125,
0,2023-09-09 21:56:43.3680,02:41,10,1,2023-09-09 21:56:58.1680,1694314618.167947,-0.005519401282072067,-0.0005616606795229018,-0.0047148605808615685,0.014678955078125,-0.0140533447265625,-1.000579833984375,106.92915344238281,-25.369705200195312,-42.32354736328125,2023-09-09 21:56:57.8340,1694314617.8343759,-0.1935480386018753,0.08615785837173462,-0.04286842420697212,0.030746515840291977,0.7683257460594177,-0.5027008056640625,
0,2023-09-09 21:56:43.3680,02:41,10,1,2023-09-09 21:56:58.2800,1694314618.279721,-0.001865011639893055,-0.007712780963629484,-0.002510828198865056,0.0094757080078125,-0.010009765625,-0.9965972900390625,107.03497314453125,-25.451446533203125,-42.147735595703125,2023-09-09 21:56:57.9330,1694314617.9329538,-0.2444581687450409,0.10683450847864151,0.0267287939786911,0.08999639749526978,0.7100371718406677,-0.6346741318702698,
0,2023-09-09 21:56:43.3680,02:41,10,1,2023-09-09 21:56:58.3680,1694314618.3683748,-0.005589175969362259,-0.004751878324896097,-0.002588326344266534,0.0044708251953125,-0.0098724365234375,-0.9939727783203125,107.01998901367188,-25.328109741210938,-42.240478515625,2023-09-09 21:56:58.0330,1694314618.032854,-0.0950191393494606,0.11189743876457214,0.017386293038725853,0.01872260496020317,0.9112548232078552,-0.654144287109375,
0,2023-09-09 21:56:43.3680,02:41,10,1,2023-09-09 21:56:58.4680,1694314618.468152,-0.0008977515972219408,-0.0034940673504024744,-0.0019081549253314734,0.0089874267578125,-0.008209228515625,-0.998260498046875,106.97767639160156,-25.3455810546875,-42.29972839355469,2023-09-09 21:56:58.1330,1694314618.132883,-0.09096367657184601,-0.04897106811404228,0.03575025126338005,0.12373358011245728,0.71435546875,-0.6139069199562073,
0,2023-09-09 21:56:43.3680,02:41,10,1,2023-09-09 21:56:58.5670,1694314618.567419,-0.006744455546140671,-0.006521548610180616,-0.0012926984345540404,0.0115203857421875,-0.0114288330078125,-0.99786376953125,106.75869750976562,-25.1363525390625,-42.36531066894531,2023-09-09 21:56:58.2330,1694314618.232516,0.27213728427886963,0.02726724185049534,0.01176742184907198,-0.037445005029439926,0.9386444091796875,-0.678680419921875,
0,2023-09-09 21:56:43.3680,02:41,10,1,2023-09-09 21:56:58.6680,1694314618.66781,-0.004040548112243414,-0.005077582783997059,-0.004202201962471008,0.006683349609375,-0.014434814453125,-0.9987640380859375,106.95880126953125,-25.4676513671875,-42.44818115234375,2023-09-09 21:56:58.3320,1694314618.332267,0.05496203899383545,-0.019758189097046852,-0.015200779773294926,0.06111150234937668,0.68988037109375,-0.56646728515625,
0,2023-09-09 21:56:43.3680,02:41,10,1,2023-09-09 21:56:58.7810,1694314618.780534,-0.0036075180396437645,-0.0064962487667799,-0.0021339908707886934,0.0041046142578125,-0.0111236572265625,-0.996429443359375,106.94685363769531,-25.700820922851562,-42.08406066894531,2023-09-09 21:56:58.4320,1694314618.432246,-0.12495512515306473,-0.03773372620344162,-0.041211940348148346,0.13322455435991287,0.6749419569969177,-0.6178131103515625,
0,2023-09-09 21:56:43.3680,02:41,10,1,2023-09-09 21:56:58.8680,1694314618.868003,-0.00024048343766480684,-0.0011137339752167463,-0.0011227887589484453,0.0076141357421875,-0.011505126953125,-0.9973907470703125,106.99055480957031,-25.446731567382812,-42.69093322753906,2023-09-09 21:56:58.5320,1694314618.532126,0.1807914674282074,0.1824263334274292,0.1527153104543686,-0.04899589344859123,1.0707244873046875,-0.6192626953125,
0,2023-09-09 21:56:43.3680,02:41,10,1,2023-09-09 21:56:58.9830,1694314618.982548,-0.0015140071045607328,-0.002549177734181285,-0.003999002743512392,0.0093231201171875,-0.0141754150390625,-1.0048065185546875,107.052734375,-25.271209716796875,-42.19708251953125,2023-09-09 21:56:58.6320,1694314618.631882,0.14441268146038055,-0.14978410303592682,-0.08685998618602753,0.15007025003433228,0.6696166396141052,-0.6892394423484802,
0,2023-09-09 21:56:43.3680,02:41,10,1,2023-09-09 21:56:59.0680,1694314619.067877,0.002787797013297677,-0.0071098413318395615,-0.003174221608787775,0.0055694580078125,-0.0151214599609375,-1.0027008056640625,106.98139953613281,-25.417251586914062,-42.321990966796875,2023-09-09 21:56:58.7320,1694314618.731841,0.22931885719299316,-0.017509283497929573,-0.009275345131754875,-0.02203364670276642,0.8548125624656677,-0.5916595458984375,
0,2023-09-09 21:56:43.3680,02:41,10,1,2023-09-09 21:56:59.1680,1694314619.168186,-0.002115881536155939,-0.004406998865306377,-0.0006615291931666434,0.009002685546875,-0.0173797607421875,-1.00396728515625,107.12100219726562,-25.5611572265625,-42.47930908203125,2023-09-09 21:56:58.8320,1694314618.831684,-0.24137762188911438,0.20306211709976196,-0.04010885953903198,-0.07432550936937332,0.5996246337890625,-0.4710846543312073,
0,2023-09-09 21:56:43.3680,02:41,10,1,2023-09-09 21:56:59.2680,1694314619.2682,-0.0005672533297911286,-0.0054637412540614605,-0.005892510060220957,0.0073394775390625,-0.014678955078125,-1.0045318603515625,107.04013061523438,-25.510330200195312,-42.2650146484375,2023-09-09 21:56:58.9310,1694314618.9313211,-0.5083191394805908,0.08246085792779922,0.08640707284212112,0.10084541141986847,0.7447356581687927,-0.4987335801124573,
0,2023-09-09 21:56:43.3680,02:41,10,1,2023-09-09 21:56:59.3690,1694314619.368717,0.0004290352517273277,-0.002365952357649803,-0.0033518546260893345,0.00347900390625,-0.0137786865234375,-0.9947509765625,106.99102783203125,-25.38665771484375,-42.18003845214844,2023-09-09 21:56:59.0310,1694314619.031169,-0.3766511380672455,0.08210479468107224,0.1003766879439354,0.06260686740279198,0.724884033203125,-0.64990234375,
0,2023-09-09 21:56:43.3680,02:41,10,1,2023-09-09 21:56:59.4680,1694314619.468072,-0.0008801747462712228,-0.0018708707066252828,-0.0016077503096312284,0.007568359375,-0.0133056640625,-0.9979095458984375,106.99745178222656,-25.537200927734375,-42.232574462890625,2023-09-09 21:56:59.1310,1694314619.131095,-0.16409075260162354,0.009099691174924374,-0.03573611378669739,0.053024373948574066,0.7006835341453552,-0.578826904296875,
0,2023-09-09 21:56:43.3680,02:41,10,1,2023-09-09 21:56:59.5680,1694314619.567706,-0.0052136704325675964,-0.002669020090252161,-0.0016263924771919847,0.0074005126953125,-0.01275634765625,-1.0023651123046875,107.11703491210938,-25.384811401367188,-42.451904296875,2023-09-09 21:56:59.2310,1694314619.230978,-0.09822098910808563,-0.14054347574710846,0.059941306710243225,0.14051825553178787,0.7115325927734375,-0.5597381591796875,
0,2023-09-09 21:56:43.3680,02:41,10,1,2023-09-09 21:56:59.6670,1694314619.66747,-0.003716707695275545,-0.0043987431563436985,-0.0018804579740390182,0.00384521484375,-0.0098419189453125,-0.9954071044921875,107.02391052246094,-25.176345825195312,-42.25730895996094,2023-09-09 21:56:59.3310,1694314619.330789,0.050680339336395264,0.12014858424663544,0.12421123683452606,-0.039901670068502426,0.9334868788719177,-0.5551299452781677,
0,2023-09-09 21:56:43.3680,02:41,10,1,2023-09-09 21:56:59.7690,1694314619.768683,-0.003022954100742936,-0.00421471893787384,-0.003135872073471546,0.0051116943359375,-0.01226806640625,-0.99493408203125,106.93220520019531,-25.547653198242188,-42.45930480957031,2023-09-09 21:56:59.4310,1694314619.430568,-0.34936168789863586,0.08088093996047974,-0.013144319877028465,0.06993108987808228,0.7143554091453552,-0.6200562119483948,
0,2023-09-09 21:56:43.3680,02:41,10,1,2023-09-09 21:56:59.8680,1694314619.86838,-0.00355904852040112,-0.0007720504072494805,-0.002769687445834279,0.0069122314453125,-0.0125732421875,-0.997467041015625,106.98805236816406,-25.70501708984375,-42.36997985839844,2023-09-09 21:56:59.5300,1694314619.530395,-0.17387008666992188,-0.04572241008281708,0.0005940295523032546,0.09935005009174347,0.654052734375,-0.5047760605812073,
0,2023-09-09 21:56:43.3680,02:41,10,1,2023-09-09 21:56:59.9680,1694314619.968462,-0.0038772961124777794,0.0003576625313144177,-0.005346295889467001,0.00494384765625,-0.0123443603515625,-0.99945068359375,106.98370361328125,-25.702804565429688,-42.38307189941406,2023-09-09 21:56:59.6300,1694314619.630352,-0.027579378336668015,-0.185932919383049,-0.016884995624423027,0.13113407790660858,0.6696318984031677,-0.6267243027687073,
0,2023-09-09 21:56:43.3680,02:41,10,1,2023-09-09 21:57:00.0820,1694314620.0821528,-0.003921238239854574,-0.003471696749329567,-0.0019052254501730204,0.0068359375,-0.008880615234375,-0.996368408203125,107.08782958984375,-25.501190185546875,-41.77436828613281,2023-09-09 21:56:59.7300,1694314619.730094,0.09736968576908112,0.12973196804523468,-0.07352054119110107,-0.08282464370131493,0.961929202079773,-0.624420166015625,
0,2023-09-09 21:56:43.3680,02:41,10,1,2023-09-09 21:57:00.1770,1694314620.177211,-0.001487641828134656,-0.0036426717415452003,-0.002889263443648815,0.0050048828125,-0.0097198486328125,-0.9975128173828125,107.00743103027344,-25.42034912109375,-42.42802429199219,2023-09-09 21:56:59.8300,1694314619.83013,-0.0017369948327541351,0.09519702196121216,0.10430474579334259,0.08175666257739067,0.7911071181297302,-0.5210723876953125,
0,2023-09-09 21:56:43.3680,02:41,10,1,2023-09-09 21:57:00.2790,1694314620.278852,-0.000871652620844543,-0.004772651009261608,-0.002110022585839033,0.0049285888671875,-0.0102081298828125,-0.999176025390625,107.14009094238281,-25.806533813476562,-41.8555908203125,2023-09-09 21:56:59.9300,1694314619.929813,0.04636388644576073,-0.05819053202867508,0.010130609385669231,0.10881047695875168,0.7755584120750427,-0.5994415283203125,
0,2023-09-09 21:56:43.3680,02:41,10,1,2023-09-09 21:57:00.3810,1694314620.3809252,-0.0018157431622967124,-0.005952164996415377,-0.002284459536895156,0.0068206787109375,-0.0130767822265625,-0.9996795654296875,107.04013061523438,-25.869186401367188,-41.9171142578125,2023-09-09 21:57:00.0300,1694314620.029706,-0.07076313346624374,0.03268025070428848,0.05848848819732666,-0.013824410736560822,0.7253875136375427,-0.5681609511375427,
0,2023-09-09 21:56:43.3680,02:41,10,1,2023-09-09 21:57:00.4810,1694314620.481079,0.0022865901701152325,-0.004535097163170576,-0.0036844832357019186,0.0075836181640625,-0.0131683349609375,-1.0004425048828125,106.92984008789062,-25.476333618164062,-42.1787109375,2023-09-09 21:57:00.1300,1694314620.129586,-0.1693868488073349,0.051689498126506805,-0.08648005872964859,0.02209477871656418,0.7094573974609375,-0.5538482666015625,
0,2023-09-09 21:56:43.3680,02:41,10,1,2023-09-09 21:57:00.5680,1694314620.5683079,-0.0009749832679517567,-0.0032674323301762342,-0.0034855452831834555,0.0080718994140625,-0.01458740234375,-1.0025634765625,107.00460815429688,-25.489395141601562,-41.81935119628906,2023-09-09 21:57:00.2290,1694314620.229292,-0.09684393554925919,-0.06734821200370789,0.0441041924059391,0.09959417954087257,0.7008055448532104,-0.5038146376609802,
0,2023-09-09 21:56:43.3680,02:41,10,1,2023-09-09 21:57:00.6680,1694314620.668291,-0.000556600687559694,-0.004583832807838917,-0.002998985582962632,0.00799560546875,-0.01470947265625,-1.00140380859375,107.14930725097656,-25.574356079101562,-42.25274658203125,2023-09-09 21:57:00.3290,1694314620.329273,-0.17855237424373627,0.07160461694002151,0.009082422591745853,0.04472357779741287,0.7945556044578552,-0.6522064208984375,
0,2023-09-09 21:56:43.3680,02:41,10,1,2023-09-09 21:57:00.7810,1694314620.780596,-0.0023550332989543676,-0.0021052288357168436,-0.0017986990278586745,0.005584716796875,-0.0151824951171875,-1.0014801025390625,106.90992736816406,-25.65374755859375,-42.24281311035156,2023-09-09 21:57:00.4290,1694314620.4289842,0.12946729362010956,0.11319400370121002,0.014276218600571156,-0.035797033458948135,0.9446868896484375,-0.6431580185890198,
0,2023-09-09 21:56:43.3680,02:41,10,1,2023-09-09 21:57:00.8680,1694314620.8680348,-0.0005046690348535776,-0.002826679265126586,-0.004524177871644497,0.0047607421875,-0.015228271484375,-1.0032501220703125,106.96162414550781,-25.639785766601562,-42.01844787597656,2023-09-09 21:57:00.5290,1694314620.528718,0.31037676334381104,-0.10003944486379623,-0.02100900001823902,0.05448920279741287,0.7389373183250427,-0.6405029892921448,
0,2023-09-09 21:56:43.3680,02:41,10,1,2023-09-09 21:57:00.9680,1694314620.967864,-0.0007294398383237422,-0.004796086810529232,-0.002487126039341092,0.005645751953125,-0.0161895751953125,-1.004425048828125,106.96162414550781,-25.639785766601562,-42.01844787597656,2023-09-09 21:57:00.6290,1694314620.6286922,0.0946497917175293,0.02856673300266266,0.011782901361584663,0.06385810673236847,0.8490447402000427,-0.5316314697265625,
0,2023-09-09 21:56:43.3680,02:41,10,1,2023-09-09 21:57:01.0680,1694314621.067591,-0.003969974350184202,-0.0027827369049191475,-0.004686897154897451,0.0079193115234375,-0.013824462890625,-1.00152587890625,107.08952331542969,-25.579376220703125,-41.94769287109375,2023-09-09 21:57:00.7290,1694314620.728527,-0.22474537789821625,0.11326350271701813,0.022927498444914818,0.03488166630268097,0.8383483290672302,-0.6093292236328125,
0,2023-09-09 21:56:43.3680,02:41,10,1,2023-09-09 21:57:01.1780,1694314621.178252,-0.0030040456913411617,-0.005064000841230154,-0.003632551757618785,0.0075225830078125,-0.0157012939453125,-1.00244140625,107.09181213378906,-25.642364501953125,-41.766937255859375,2023-09-09 21:57:00.8290,1694314620.828568,-0.08949694037437439,-0.05390803888440132,-0.0704236552119255,0.11265571042895317,0.6428374648094177,-0.554595947265625,
0,2023-09-09 21:56:43.3680,02:41,10,1,2023-09-09 21:57:01.2680,1694314621.268434,-0.0034016557037830353,-0.0046357642859220505,-0.0028871328104287386,0.004608154296875,-0.0148162841796875,-1.0023651123046875,107.09181213378906,-25.642364501953125,-41.766937255859375,2023-09-09 21:57:00.9280,1694314620.928313,-0.25142019987106323,0.060891516506671906,0.010849563404917717,0.042236387729644775,0.7710875868797302,-0.5386810898780823,
0,2023-09-09 21:56:43.3680,02:41,10,1,2023-09-09 21:57:01.3680,1694314621.367732,-0.0013206616276875138,-0.0027409254107624292,-0.005459479987621307,0.0063629150390625,-0.013580322265625,-1.0010833740234375,107.07553100585938,-25.453399658203125,-42.07356262207031,2023-09-09 21:57:01.0280,1694314621.028023,-0.23303905129432678,-0.01567782834172249,-0.042259059846401215,0.13172918930649757,0.7330932021141052,-0.6455535888671875,
0,2023-09-09 21:56:43.3680,02:41,10,1,2023-09-09 21:57:01.4680,1694314621.46805,-0.0012120045721530914,-0.0049375006929039955,0.0004724447790067643,0.0069732666015625,-0.014404296875,-1.0003204345703125,106.73428344726562,-25.261138916015625,-42.13331604003906,2023-09-09 21:57:01.1280,1694314621.127715,-0.0392233170568943,-0.0970175564289093,-0.08394096046686172,0.07620247825980186,0.6926727294921875,-0.5664978623390198,
0,2023-09-09 21:56:43.3680,02:41,10,1,2023-09-09 21:57:01.5680,1694314621.5676122,-0.000603738590143621,-0.006555637344717979,-0.0024735440965741873,0.004974365234375,-0.0148468017578125,-1.001678466796875,106.8663330078125,-25.481109619140625,-42.394378662109375,2023-09-09 21:57:01.2280,1694314621.227697,-0.01044466532766819,-0.12383239716291428,0.00881613977253437,0.014740072190761566,0.6929778456687927,-0.679107666015625,
0,2023-09-09 21:56:43.3680,02:41,10,1,2023-09-09 21:57:01.6680,1694314621.667739,0.002062085550278425,-0.003742806613445282,-0.0025033713318407536,0.0067138671875,-0.0139007568359375,-1.001495361328125,106.915283203125,-25.642852783203125,-42.33642578125,2023-09-09 21:57:01.3300,1694314621.329615,-0.23043422400951385,0.22484475374221802,-0.1127081960439682,-0.059387143701314926,0.8239135146141052,-0.5662993788719177,
0,2023-09-09 21:56:43.3680,02:41,10,1,2023-09-09 21:57:01.7680,1694314621.768013,-0.0021885856986045837,-0.0028583707753568888,-0.004446680191904306,0.0066680908203125,-0.014739990234375,-1.001434326171875,106.96067810058594,-25.463607788085938,-42.195343017578125,2023-09-09 21:57:01.4270,1694314621.427496,-0.29867926239967346,-0.10431089252233505,0.07959384471178055,0.22532661631703377,0.6509856581687927,-0.5972136855125427,
0,2023-09-09 21:56:43.3680,02:41,10,1,2023-09-09 21:57:01.8680,1694314621.867965,-0.0035859462805092335,-0.004878911189734936,-0.0029739518649876118,0.0064697265625,-0.0146026611328125,-1.0020904541015625,106.97221374511719,-25.633834838867188,-42.22395324707031,2023-09-09 21:57:01.5270,1694314621.527247,-0.13316811621189117,-0.10804344713687897,-0.035185571759939194,0.15875250473618507,0.7145385146141052,-0.608245849609375,
0,2023-09-09 21:56:43.3680,02:41,10,1,2023-09-09 21:57:01.9680,1694314621.9680328,-0.0015664712991565466,-0.0030146983917802572,0.0001323590986430645,0.006988525390625,-0.0141448974609375,-1.0007476806640625,106.86323547363281,-25.57171630859375,-42.52386474609375,2023-09-09 21:57:01.6270,1694314621.6270719,-0.017709236592054367,0.017043767496943474,0.026137473061680794,-0.016555722802877426,0.8300322890281677,-0.6328124403953552,
0,2023-09-09 21:56:43.3680,02:41,10,1,2023-09-09 21:57:02.0790,1694314622.079002,-0.0028842033352702856,-0.003448793664574623,-0.0036964674945920706,0.0054779052734375,-0.0153045654296875,-0.9999847412109375,106.93855285644531,-25.393478393554688,-42.31608581542969,2023-09-09 21:57:01.7270,1694314621.727118,-0.07866160571575165,0.18627767264842987,-0.03805612772703171,-0.04881281405687332,0.853057861328125,-0.600341796875,
0,2023-09-09 21:56:43.3680,02:41,10,1,2023-09-09 21:57:02.1780,1694314622.177799,-0.0007597998483106494,-0.0035771578550338745,-0.0027393274940550327,0.006866455078125,-0.01312255859375,-1.0008392333984375,106.91729736328125,-25.399978637695312,-41.902435302734375,2023-09-09 21:57:01.8270,1694314621.826942,-0.11713622510433197,-0.02119256742298603,0.05044401064515114,0.12333685532212257,0.7216185927391052,-0.5693206787109375,
0,2023-09-09 21:56:43.3680,02:41,10,1,2023-09-09 21:57:02.2680,1694314622.268353,-0.0025891251862049103,-0.002951315138489008,-0.00481419637799263,0.00689697265625,-0.0139617919921875,-1.0001983642578125,106.7869873046875,-25.62103271484375,-41.4454345703125,2023-09-09 21:57:01.9270,1694314621.9267402,-0.06900744140148163,-0.03645967319607735,0.009565487504005432,0.07357795909047127,0.678497314453125,-0.5662078857421875,
0,2023-09-09 21:56:43.3680,02:41,10,1,2023-09-09 21:57:02.3680,1694314622.367656,-0.004018177278339863,-0.0027630296535789967,-0.002153964713215828,0.0055084228515625,-0.01336669921875,-0.999969482421875,106.73654174804688,-25.344161987304688,-42.23674011230469,2023-09-09 21:57:02.0260,1694314622.0264,0.16178882122039795,-0.1763457953929901,0.11097542941570282,0.09080511331558228,0.7682952880859375,-0.6159668564796448,
0,2023-09-09 21:56:43.3680,02:41,10,1,2023-09-09 21:57:02.4790,1694314622.4790602,-0.0007427555974572897,-0.005501824431121349,-0.00284984870813787,0.0050506591796875,-0.0146942138671875,-1.0012969970703125,106.80744934082031,-25.413055419921875,-42.246307373046875,2023-09-09 21:57:02.1260,1694314622.126275,0.2031160295009613,0.10283976048231125,-0.0531621091067791,-0.02767939120531082,0.900649905204773,-0.580169677734375,
0,2023-09-09 21:56:43.3680,02:41,10,1,2023-09-09 21:57:02.5680,1694314622.5679998,-0.0010359697043895721,-0.006031527183949947,-0.002237055217847228,0.006561279296875,-0.014404296875,-1.0016021728515625,106.80531311035156,-25.1541748046875,-42.105499267578125,2023-09-09 21:57:02.2260,1694314622.226184,0.24607281386852264,-0.01053712796419859,0.12951436638832092,0.07002265378832817,0.8977354764938354,-0.6210784912109375,
0,2023-09-09 21:56:43.3680,02:41,10,1,2023-09-09 21:57:02.6680,1694314622.668148,-0.0010423612548038363,-0.0019947076216340065,-0.004471447318792343,0.00634765625,-0.0137939453125,-1.000396728515625,106.74349975585938,-25.224594116210938,-42.160858154296875,2023-09-09 21:57:02.3260,1694314622.326023,0.15451346337795258,0.0003599952906370163,-0.11900829523801804,0.03665168583393097,0.6942901015281677,-0.611785888671875,
0,2023-09-09 21:56:43.3680,02:41,10,1,2023-09-09 21:57:02.7790,1694314622.779346,-0.0004010720585938543,-0.006653907708823681,-0.0011078750248998404,0.008270263671875,-0.013580322265625,-1.0013427734375,106.85757446289062,-25.357330322265625,-42.350189208984375,2023-09-09 21:57:02.4260,1694314622.42578,0.2342170774936676,-0.07464047521352768,0.02382887899875641,0.06843573227524757,0.87408447265625,-0.6120148301124573,
0,2023-09-09 21:56:43.3680,02:41,10,1,2023-09-09 21:57:02.8690,1694314622.8687692,0.0005336974863894284,-0.002968891989439726,-0.003578489413484931,0.007080078125,-0.014251708984375,-0.9998779296875,106.79119873046875,-25.4371337890625,-42.26829528808594,2023-09-09 21:57:02.5260,1694314622.5256991,0.09120020270347595,0.025666283443570137,0.01884014531970024,0.05314642935991287,0.83416748046875,-0.5652924180030823,
0,2023-09-09 21:56:43.3680,02:41,10,1,2023-09-09 21:57:02.9810,1694314622.98072,-0.0006780407857149839,-0.0022562299855053425,-0.0011499529937282205,0.00640869140625,-0.014068603515625,-1.0014801025390625,106.76022338867188,-25.178131103515625,-42.32086181640625,2023-09-09 21:57:02.6250,1694314622.625488,-0.06221591681241989,-0.0005987435579299927,0.0028148062992841005,0.09022529795765877,0.760040283203125,-0.6636200547218323,
0,2023-09-09 21:56:43.3680,02:41,10,1,2023-09-09 21:57:03.0670,1694314623.0674372,-0.0006780407857149839,-0.0022562299855053425,-0.0011499529937282205,0.0069732666015625,-0.0139007568359375,-1.0014190673828125,106.91438293457031,-25.451217651367188,-42.40118408203125,2023-09-09 21:57:02.7250,1694314622.725399,-0.060162290930747986,0.0026347339153289795,-0.0424785390496254,0.04245002195239067,0.768585205078125,-0.6531982421875,
0,2023-09-09 21:56:43.3680,02:41,10,1,2023-09-09 21:57:03.1830,1694314623.1832829,0.0004913532175123692,-0.006586796138435602,-0.00410419749096036,0.0066680908203125,-0.0132598876953125,-1.00128173828125,106.67713928222656,-25.21795654296875,-42.38404846191406,2023-09-09 21:57:02.8260,1694314622.825593,0.29176345467567444,-0.03842734545469284,-0.025830421596765518,0.02812199667096138,0.94500732421875,-0.6355743408203125,
0,2023-09-09 21:56:43.3680,02:41,10,1,2023-09-09 21:57:03.2790,1694314623.2792668,-0.0005334311863407493,-0.004572114907205105,-0.002784601179882884,0.005645751953125,-0.0140228271484375,-1.00164794921875,106.798583984375,-25.287948608398438,-42.53900146484375,2023-09-09 21:57:02.9250,1694314622.925154,0.23275414109230042,-0.028789237141609192,0.029033927246928215,0.08346565440297127,0.79473876953125,-0.6116790771484375,
0,2023-09-09 21:56:43.3680,02:41,10,1,2023-09-09 21:57:03.3680,1694314623.367985,-0.0005334311863407493,-0.004572114907205105,-0.002784601179882884,0.0048980712890625,-0.015472412109375,-1.0000152587890625,106.86241149902344,-25.642135620117188,-42.45991516113281,2023-09-09 21:57:03.0250,1694314623.024884,0.0532807856798172,-0.04277695715427399,-0.011173279955983162,0.09681709855794907,0.7236480116844177,-0.7074889540672302,
0,2023-09-09 21:56:43.3680,02:41,10,1,2023-09-09 21:57:03.4680,1694314623.467842,-0.0011624698527157307,-0.0043992758728563786,-0.0034466630313545465,0.007415771484375,-0.0137481689453125,-1.0014190673828125,106.83705139160156,-25.510894775390625,-42.63349914550781,2023-09-09 21:57:03.1250,1694314623.124732,-0.09487120062112808,0.1114249974489212,-0.04268989339470863,-0.00889582559466362,0.811248779296875,-0.6226654052734375,
0,2023-09-09 21:56:43.3680,02:41,10,1,2023-09-09 21:57:03.5790,1694314623.579396,-0.0005243764026090503,-0.0055215316824615,-0.000669518718495965,0.0076446533203125,-0.015380859375,-1.00250244140625,106.77755737304688,-25.3857421875,-42.378265380859375,2023-09-09 21:57:03.2250,1694314623.22454,-0.31878048181533813,0.061005499213933945,0.038350895047187805,0.11489876359701157,0.731597900390625,-0.551239013671875,
0,2023-09-09 21:56:43.3680,02:41,10,1,2023-09-09 21:57:03.6810,1694314623.68078,-0.0002822950773406774,-0.003409645054489374,-0.0030743530951440334,0.006683349609375,-0.0151214599609375,-1.0020599365234375,106.91494750976562,-25.53759765625,-42.23561096191406,2023-09-09 21:57:03.3250,1694314623.3245459,0.09796975553035736,-0.08046082407236099,-0.007356338668614626,0.10752873122692108,0.742828369140625,-0.6084747314453125,
0,2023-09-09 21:56:43.3680,02:41,10,1,2023-09-09 21:57:03.7680,1694314623.7676802,-0.0002822950773406774,-0.003409645054489374,-0.0030743530951440334,0.005126953125,-0.01446533203125,-1.001068115234375,106.7537841796875,-25.431869506835938,-42.15666198730469,2023-09-09 21:57:03.4240,1694314623.424317,-0.4598907232284546,0.08102554827928543,-0.07439815253019333,0.10581975430250168,0.6562347412109375,-0.5406646728515625,
0,2023-09-09 21:56:43.3680,02:41,10,1,2023-09-09 21:57:03.8680,1694314623.868228,-0.0007158577209338546,-0.005794239696115255,-0.0029795446898788214,0.0076446533203125,-0.0146942138671875,-1.0016326904296875,106.94973754882812,-25.247177124023438,-42.42474365234375,2023-09-09 21:57:03.5240,1694314623.5240722,-0.19330541789531708,0.0031801490113139153,0.051524654030799866,0.07647711783647537,0.823974609375,-0.653411865234375,
0,2023-09-09 21:56:43.3680,02:41,10,1,2023-09-09 21:57:03.9810,1694314623.98071,-0.0005659217131324112,-0.005332713946700096,-0.0028969866689294577,0.00762939453125,-0.0150604248046875,-1.0033721923828125,106.78166198730469,-25.338531494140625,-42.089385986328125,2023-09-09 21:57:03.6240,1694314623.6238642,0.08115429431200027,-0.004355131648480892,-0.06914101541042328,0.010726973414421082,0.796234130859375,-0.6436004638671875,
0,2023-09-09 21:56:43.3680,02:41,10,1,2023-09-09 21:57:04.0810,1694314624.0806441,-0.001704689348116517,-0.0038978024385869503,-0.004290352575480938,0.0065765380859375,-0.0168914794921875,-1.00177001953125,106.84446716308594,-25.65472412109375,-42.167694091796875,2023-09-09 21:57:03.7240,1694314623.72374,-0.18049702048301697,0.055239491164684296,0.07138441503047943,0.11621099710464478,0.8149871826171875,-0.5560455918312073,
0,2023-09-09 21:56:43.3680,02:41,10,1,2023-09-09 21:57:04.1770,1694314624.177078,0.000248472933890298,-0.004677842371165752,-0.004570517223328352,0.005157470703125,-0.0163726806640625,-1.003692626953125,106.65278625488281,-25.057037353515625,-42.0479736328125,2023-09-09 21:57:03.8290,1694314623.8288999,-0.12713712453842163,-0.0007004756480455399,0.0462215356528759,0.10105900466442108,0.7665709853172302,-0.6344298720359802,
0,2023-09-09 21:56:43.3680,02:41,10,1,2023-09-09 21:57:04.2690,1694314624.26864,0.000248472933890298,-0.004677842371165752,-0.004570517223328352,0.0074005126953125,-0.0157318115234375,-1.003326416015625,106.84089660644531,-25.050933837890625,-42.06352233886719,2023-09-09 21:57:03.9240,1694314623.923563,0.08374574780464172,-0.09772702306509018,-0.03451162576675415,0.07794195413589478,0.73504638671875,-0.6093292236328125,
0,2023-09-09 21:56:43.3680,02:41,10,1,2023-09-09 21:57:04.3680,1694314624.367929,0.00038535939529538155,-0.003156644757837057,-0.001889246515929699,0.005462646484375,-0.015838623046875,-1.0037994384765625,106.81471252441406,-25.646774291992188,-41.96321105957031,2023-09-09 21:57:04.0230,1694314624.023196,-0.22178713977336884,0.1274818629026413,-0.00418388145044446,0.021774329245090485,0.7382354140281677,-0.6099243760108948,
0,2023-09-09 21:56:43.3680,02:41,10,1,2023-09-09 21:57:04.4790,1694314624.479285,0.0003861583536490798,-0.005600361619144678,-0.0034000577870756388,0.005889892578125,-0.0154876708984375,-1.0018768310546875,106.82435607910156,-25.540496826171875,-41.84550476074219,2023-09-09 21:57:04.1230,1694314624.122748,-0.09606555849313736,0.05184648558497429,-0.005355472210794687,0.039535582065582275,0.8276214003562927,-0.6253814697265625,
0,2023-09-09 21:56:43.3680,02:41,10,1,2023-09-09 21:57:04.5680,1694314624.567971,0.0003861583536490798,-0.005600361619144678,-0.0034000577870756388,0.005126953125,-0.015380859375,-1.0009765625,106.84780883789062,-25.62017822265625,-41.85298156738281,2023-09-09 21:57:04.2230,1694314624.2231898,-0.1847873032093048,0.012661535292863846,-0.0013938203919678926,0.06675725430250168,0.724884033203125,-0.585357666015625,
0,2023-09-09 21:56:43.3680,02:41,10,1,2023-09-09 21:57:04.6690,1694314624.669184,0.00031372037483379245,-0.005624862387776375,0.0009707222343422472,0.0058135986328125,-0.0140228271484375,-1.001983642578125,106.74342346191406,-25.171417236328125,-42.13572692871094,2023-09-09 21:57:04.3230,1694314624.322891,-0.225267693400383,0.051622115075588226,-0.07193466275930405,0.09767156094312668,0.5761260390281677,-0.6045532822608948,
0,2023-09-09 21:56:43.3680,02:41,10,1,2023-09-09 21:57:04.7680,1694314624.768083,0.00133903743699193,-0.0030655646696686745,-0.0017531589837744832,0.00799560546875,-0.012969970703125,-1.0013885498046875,106.83149719238281,-25.355606079101562,-42.190277099609375,2023-09-09 21:57:04.4230,1694314624.422648,-0.1636338233947754,0.07616141438484192,-0.05809638276696205,0.06770331412553787,0.8306732177734375,-0.56695556640625,
0,2023-09-09 21:56:43.3680,02:41,10,1,2023-09-09 21:57:04.8680,1694314624.868444,0.0009369000908918679,-0.005547098349779844,-0.003014165675267577,0.0063018798828125,-0.0154266357421875,-1.0018310546875,106.82405090332031,-25.633453369140625,-41.988006591796875,2023-09-09 21:57:04.5230,1694314624.5225902,-0.11519458144903183,-0.037252094596624374,0.0721697136759758,0.06733708828687668,0.7530516982078552,-0.5777892470359802,
0,2023-09-09 21:56:43.3680,02:41,10,1,2023-09-09 21:57:04.9780,1694314624.978424,-0.00034940673504024744,-0.005612878128886223,-0.002692722249776125,0.00628662109375,-0.0147705078125,-1.000823974609375,106.8707275390625,-25.706893920898438,-41.99082946777344,2023-09-09 21:57:04.6220,1694314624.622316,-0.16287562251091003,0.024679848924279213,-0.015499919652938843,0.08448800444602966,0.7870635986328125,-0.58489990234375,
0,2023-09-09 21:56:43.3680,02:41,10,1,2023-09-09 21:57:05.0800,1694314625.080079,-0.0037939392495900393,-0.007998005487024784,-0.0029731530230492353,0.006439208984375,-0.013702392578125,-1.0012054443359375,106.74331665039062,-25.606460571289062,-42.21331787109375,2023-09-09 21:57:04.7220,1694314624.722132,0.056908540427684784,-0.03057834878563881,0.05778221786022186,0.12080389261245728,0.8551483154296875,-0.6047821044921875,
0,2023-09-09 21:56:43.3680,02:41,10,1,2023-09-09 21:57:05.1770,1694314625.1772652,-0.0037939392495900393,-0.007998005487024784,-0.0029731530230492353,0.0063934326171875,-0.01446533203125,-1.00042724609375,106.79997253417969,-25.531097412109375,-41.941070556640625,2023-09-09 21:57:04.8230,1694314624.823082,0.09076251089572906,-0.005015196278691292,-0.02842823415994644,0.11090093851089478,0.80364990234375,-0.6257781982421875,
0,2023-09-09 21:56:43.3680,02:41,10,1,2023-09-09 21:57:05.2690,1694314625.2688699,0.0010490191634744406,-0.005260808393359184,-0.003560912562534213,0.00677490234375,-0.014312744140625,-1.0032501220703125,106.88371276855469,-25.449066162109375,-41.58256530761719,2023-09-09 21:57:04.9220,1694314624.9220119,0.05809018760919571,-0.07555487751960754,0.04127408191561699,0.06620793789625168,0.7339171767234802,-0.5968170166015625,
0,2023-09-09 21:56:43.3680,02:41,10,1,2023-09-09 21:57:05.3680,1694314625.3677158,0.0013102752855047584,-0.0027691549621522427,-0.003082076320424676,0.0037384033203125,-0.0164642333984375,-1.0017242431640625,106.84825134277344,-25.406143188476562,-41.97441101074219,2023-09-09 21:57:05.0220,1694314625.021679,-0.04454464465379715,0.04612508788704872,-0.07780314236879349,0.03479008376598358,0.7946166396141052,-0.640899658203125,
0,2023-09-09 21:56:43.3680,02:41,10,1,2023-09-09 21:57:05.4770,1694314625.4772549,0.0009411611245013773,-0.005913016386330128,-0.004727110732346773,0.005950927734375,-0.015655517578125,-1.0026397705078125,107.14907836914062,-25.602706909179688,-41.776519775390625,2023-09-09 21:57:05.1210,1694314625.1214771,-0.024156151339411736,0.07467070966959,-0.00872054323554039,0.004348829388618469,0.843658447265625,-0.6117401719093323,
0,2023-09-09 21:56:43.3680,02:41,10,1,2023-09-09 21:57:05.5770,1694314625.577437,-0.0009456885163672268,-0.0056831855326890945,-0.0024927188642323017,0.006866455078125,-0.0156402587890625,-1.0026397705078125,107.58601379394531,-26.6041259765625,-38.261444091796875,2023-09-09 21:57:05.2210,1694314625.22141,-0.15536843240261078,0.012885240837931633,0.024156812578439713,0.13319402188062668,0.734695315361023,-0.542449951171875,
0,2023-09-09 21:56:43.3680,02:41,10,1,2023-09-09 21:57:05.6780,1694314625.6777248,0.001987250754609704,-0.005271460860967636,-0.00230789533816278,0.00653076171875,-0.01580810546875,-1.0035247802734375,107.58828735351562,-26.61944580078125,-37.805023193359375,2023-09-09 21:57:05.3210,1694314625.321188,-0.13365280628204346,-0.015127618797123432,0.04711022973060608,0.14065556228160858,0.7256163358688354,-0.577789306640625,
0,2023-09-09 21:56:43.3680,02:41,10,1,2023-09-09 21:57:05.7790,1694314625.778739,-0.002793123247101903,-0.004538825247436762,-0.0009566074586473405,0.0059356689453125,-0.0156707763671875,-1.0012969970703125,107.52618408203125,-26.103347778320312,-38.62005615234375,2023-09-09 21:57:05.4210,1694314625.4211888,-0.05932745337486267,0.058601465076208115,-0.028560560196638107,0.04873663932085037,0.8121795058250427,-0.5848541855812073,
0,2023-09-09 21:56:43.3680,02:41,10,1,2023-09-09 21:57:05.8780,1694314625.8778648,-0.0022743395529687405,-0.003728159237653017,-0.0023638217244297266,0.0067901611328125,-0.014434814453125,-1.0022735595703125,106.85324096679688,-25.336563110351562,-41.83283996582031,2023-09-09 21:57:05.5210,1694314625.521064,-0.1829623132944107,-0.04419202357530594,0.028571968898177147,0.05941777676343918,0.7380523085594177,-0.5381928086280823,
0,2023-09-09 21:56:43.3680,02:41,10,1,2023-09-09 21:57:05.9830,1694314625.982562,-0.0006261091912165284,-0.004908205941319466,-0.004227768164128065,0.0059661865234375,-0.0153961181640625,-1.0006866455078125,106.88969421386719,-25.347381591796875,-42.033660888671875,2023-09-09 21:57:05.6210,1694314625.620779,0.035573091357946396,-0.08735360950231552,0.030277390033006668,0.04489140212535858,0.8142393827438354,-0.653472900390625,
0,2023-09-09 21:56:43.3680,02:41,10,1,2023-09-09 21:57:06.0810,1694314626.080567,-0.0043777041137218475,-0.0057710702531039715,-0.0031878037843853235,0.0071258544921875,-0.01263427734375,-1.0014801025390625,106.94084167480469,-25.461151123046875,-41.98500061035156,2023-09-09 21:57:05.7210,1694314625.7205281,-0.001190913375467062,0.12577010691165924,-0.12304791808128357,-0.01705928146839142,0.7850188612937927,-0.59063720703125,
0,2023-09-09 21:56:43.3680,02:41,10,1,2023-09-09 21:57:06.1830,1694314626.1829638,-0.0034946000669151545,-0.0023638217244297266,-0.002269279444590211,0.006988525390625,-0.014617919921875,-1.0019683837890625,107.20834350585938,-25.708297729492188,-40.56965637207031,2023-09-09 21:57:05.8240,1694314625.8240972,-0.2324453741312027,0.022652916610240936,0.036648500710725784,0.07752996683120728,0.7415618300437927,-0.53265380859375,
0,2023-09-09 21:56:43.3680,02:41,10,1,2023-09-09 21:57:06.2780,1694314626.2777882,-0.002871153876185417,-0.005284776911139488,-0.0024607607629150152,0.00604248046875,-0.015350341796875,-1.0011444091796875,106.85189819335938,-25.001846313476562,-42.300445556640625,2023-09-09 21:57:05.9210,1694314625.920517,-0.28877097368240356,-0.010342051275074482,0.10423873364925385,0.11434940993785858,0.6560669541358948,-0.5440521240234375,
0,2023-09-09 21:56:43.3680,02:41,10,1,2023-09-09 21:57:06.3820,1694314626.381956,-0.001886050682514906,-0.004065847955644131,-0.004265318624675274,0.0054931640625,-0.0144195556640625,-1.0015106201171875,106.94770812988281,-25.411972045898438,-41.91950988769531,2023-09-09 21:57:06.0200,1694314626.020215,-0.09146042168140411,-0.03593423217535019,0.039407070726156235,0.14773566275835037,0.7882537245750427,-0.5868378281593323,
0,2023-09-09 21:56:43.3680,02:41,10,1,2023-09-09 21:57:06.4790,1694314626.4790401,0.0010330402292311192,-0.0027260116767138243,-0.0039113848470151424,0.006561279296875,-0.01568603515625,-1.002410888671875,106.87120056152344,-25.510330200195312,-42.20623779296875,2023-09-09 21:57:06.1200,1694314626.119927,0.1643742173910141,-0.02018735744059086,0.06216341629624367,0.0033722594380378723,0.8364409804344177,-0.5868225693702698,
0,2023-09-09 21:56:43.3680,02:41,10,1,2023-09-09 21:57:06.5810,1694314626.580692,-0.0006940197781659663,-0.0049588060937821865,-0.0031470574904233217,0.007537841796875,-0.0141448974609375,-1.001373291015625,106.8094482421875,-25.212844848632812,-42.27455139160156,2023-09-09 21:57:06.2200,1694314626.2197762,-0.2423739731311798,0.0006593340076506138,0.004479148890823126,0.13807684183120728,0.7428893446922302,-0.5753783583641052,
0,2023-09-09 21:56:43.3680,02:41,10,1,2023-09-09 21:57:06.6790,1694314626.6794229,-0.001859152689576149,-0.0017422399250790477,-0.00421471893787384,0.0077972412109375,-0.0148468017578125,-1.0018310546875,106.82974243164062,-25.381011962890625,-42.230377197265625,2023-09-09 21:57:06.3200,1694314626.3203979,-0.07896354049444199,-0.061779409646987915,0.053098250180482864,0.09153755754232407,0.7996214628219604,-0.5951842665672302,
0,2023-09-09 21:56:43.3680,02:41,10,1,2023-09-09 21:57:06.7810,1694314626.780653,-0.002561161993071437,-0.00384400668554008,-0.0010277138790115714,0.007110595703125,-0.015106201171875,-1.001434326171875,106.89840698242188,-25.522247314453125,-42.69720458984375,2023-09-09 21:57:06.4200,1694314626.419657,0.1313251256942749,-0.008968393318355083,-0.004585219547152519,0.016693174839019775,0.8326720595359802,-0.5927124619483948,
0,2023-09-09 21:56:43.3680,02:41,10,1,2023-09-09 21:57:06.8790,1694314626.8792582,-0.001891909632831812,-0.00381444557569921,-0.005650429055094719,0.0066986083984375,-0.0145416259765625,-1.0001983642578125,106.81643676757812,-25.33721923828125,-42.25439453125,2023-09-09 21:57:06.5190,1694314626.519486,-0.10433561354875565,-0.08404583483934402,0.03770165145397186,0.14167791604995728,0.7319030165672302,-0.543212890625,
0,2023-09-09 21:56:43.3680,02:41,10,1,2023-09-09 21:57:06.9810,1694314626.9807281,6.73779723001644e-05,-0.0035989959724247456,-0.0017363809747621417,0.006866455078125,-0.014007568359375,-1.000579833984375,106.70515441894531,-25.217926025390625,-42.460906982421875,2023-09-09 21:57:06.6190,1694314626.619213,0.28831860423088074,0.018931947648525238,0.04433072730898857,0.03002937138080597,0.9256591796875,-0.6542816162109375,
0,2023-09-09 21:56:43.3680,02:41,10,1,2023-09-09 21:57:07.0800,1694314627.080193,0.0004977448261342943,-0.006761233322322369,-0.0031350732315331697,0.007049560546875,-0.01336669921875,-1.00140380859375,106.77210998535156,-25.180877685546875,-42.4515380859375,2023-09-09 21:57:06.7190,1694314626.718929,0.3313091993331909,0.039314985275268555,-0.09216613322496414,-0.019378602504730225,0.8846282362937927,-0.6716002821922302,
0,2023-09-09 21:56:43.3680,02:41,10,1,2023-09-09 21:57:07.1780,1694314627.177627,-0.002418682910501957,-0.007981227710843086,-0.002834668615832925,0.00628662109375,-0.0128021240234375,-0.99945068359375,106.89012145996094,-25.360824584960938,-42.63096618652344,2023-09-09 21:57:06.8190,1694314626.818973,-0.03342495113611221,-0.07835785299539566,-0.003002236830070615,0.15342716872692108,0.7182464599609375,-0.5296173095703125,
0,2023-09-09 21:56:43.3680,02:41,10,1,2023-09-09 21:57:07.2790,1694314627.279048,-0.0016413062112405896,-0.00506906071677804,-0.002323608146980405,0.0064697265625,-0.01348876953125,-0.999786376953125,106.73431396484375,-25.392044067382812,-42.37640380859375,2023-09-09 21:57:06.9190,1694314626.918818,-0.19950546324253082,-0.003344728611409664,-0.027913212776184082,0.11195380240678787,0.7664489150047302,-0.578399658203125,
0,2023-09-09 21:56:43.3680,02:41,10,1,2023-09-09 21:57:07.3790,1694314627.378666,-0.0019092201255261898,-0.00449727987870574,-0.002299905987456441,0.0095367431640625,-0.0147552490234375,-1.0011749267578125,106.90702819824219,-25.217819213867188,-41.91935729980469,2023-09-09 21:57:07.0190,1694314627.018676,-0.16249558329582214,-0.0349789522588253,0.025946058332920074,0.11759955435991287,0.73974609375,-0.564239501953125,
0,2023-09-09 21:56:43.3680,02:41,10,1,2023-09-09 21:57:07.4810,1694314627.480665,-0.0012383698485791683,-0.0049763829447329044,-0.003293264890089631,0.005645751953125,-0.014251708984375,-1.0002899169921875,106.7308349609375,-25.145263671875,-42.324432373046875,2023-09-09 21:57:07.1180,1694314627.118324,-0.04188954085111618,-0.08855003863573074,0.013752109371125698,0.11543281376361847,0.7471618056297302,-0.6428223252296448,
0,2023-09-09 21:56:43.3680,02:41,10,1,2023-09-09 21:57:07.5810,1694314627.58071,-0.0036701022181659937,-0.004311923868954182,-0.0035228293854743242,0.005157470703125,-0.0126800537109375,-0.9999542236328125,106.81117248535156,-25.114273071289062,-42.493682861328125,2023-09-09 21:57:07.2180,1694314627.218179,0.21054929494857788,0.05574069172143936,-0.0030329630244523287,-0.014343217015266418,0.9295958876609802,-0.640411376953125,
0,2023-09-09 21:56:43.3680,02:41,10,1,2023-09-09 21:57:07.6810,1694314627.680571,-0.0017038905061781406,-0.007783354725688696,-0.0028935244772583246,0.008056640625,-0.0137176513671875,-1.0009307861328125,106.75442504882812,-25.389755249023438,-42.703399658203125,2023-09-09 21:57:07.3180,1694314627.318097,0.14006927609443665,0.14523382484912872,-0.013125011697411537,-0.016097955405712128,0.903488039970398,-0.621124267578125,
0,2023-09-09 21:56:43.3680,02:41,10,1,2023-09-09 21:57:07.7810,1694314627.7806,0.00039974047103896737,-0.005515939090400934,-0.004515922162681818,0.0070037841796875,-0.013946533203125,-1.000244140625,106.60078430175781,-25.11029052734375,-43.32078552246094,2023-09-09 21:57:07.4180,1694314627.417867,-0.10365689545869827,0.13875742256641388,-0.16533581912517548,0.08351139724254608,0.665237307548523,-0.5599517822265625,
0,2023-09-09 21:56:43.3680,02:41,10,1,2023-09-09 21:57:07.8800,1694314627.879898,-0.001457814360037446,-0.0062882560305297375,-0.002198173198848963,0.0060577392578125,-0.014923095703125,-1.000823974609375,106.80447387695312,-25.095016479492188,-43.22230529785156,2023-09-09 21:57:07.5180,1694314627.517745,0.0061042169108986855,-0.0650274008512497,0.035869330167770386,0.16462713479995728,0.70477294921875,-0.5729523301124573,
0,2023-09-09 21:56:43.3680,02:41,10,1,2023-09-09 21:57:07.9810,1694314627.980764,-0.001711081014946103,-0.00284984870813787,-0.004888498689979315,0.005950927734375,-0.0148468017578125,-0.999755859375,106.85887145996094,-25.272216796875,-43.08329772949219,2023-09-09 21:57:07.6180,1694314627.617558,0.050504837185144424,-0.006334526464343071,-0.01667783595621586,0.05352788418531418,0.8705138564109802,-0.6221465468406677,
0,2023-09-09 21:56:43.3680,02:41,10,1,2023-09-09 21:57:08.0800,1694314628.080337,-0.00472551304847002,-0.004348942078649998,-0.0018255969043821096,0.00830078125,-0.0133056640625,-1.0012664794921875,106.87071228027344,-25.193695068359375,-42.855621337890625,2023-09-09 21:57:07.7170,1694314627.717381,-0.1249871626496315,0.08270280808210373,-0.062626913189888,0.02281194180250168,0.8043060302734375,-0.5982361435890198,
0,2023-09-09 21:56:43.3680,02:41,10,1,2023-09-09 21:57:08.1780,1694314628.178288,-0.000687361869495362,-0.0018245317041873932,-0.002016279147937894,0.0062408447265625,-0.0144500732421875,-1.000732421875,107.0323486328125,-25.339920043945312,-42.452728271484375,2023-09-09 21:57:07.8170,1694314627.817225,-0.1024203971028328,-0.05758412927389145,0.05061991140246391,0.12544255703687668,0.744659423828125,-0.5308074951171875,
0,2023-09-09 21:56:43.3680,02:41,10,1,2023-09-09 21:57:08.2810,1694314628.280653,-0.0009033442474901676,-0.0029017801862210035,-0.002959570847451687,0.0048980712890625,-0.014678955078125,-1.0001373291015625,106.79377746582031,-25.278656005859375,-42.7105712890625,2023-09-09 21:57:07.9170,1694314627.917314,-0.0985882431268692,0.002134059090167284,0.014311373233795166,0.10820012539625168,0.7949523329734802,-0.5858306884765625,
0,2023-09-09 21:56:43.3680,02:41,10,1,2023-09-09 21:57:08.3790,1694314628.379262,-0.0024138891603797674,-0.0075964005663990974,-0.0021632856223732233,0.007171630859375,-0.0138397216796875,-1.0008392333984375,106.57528686523438,-25.088302612304688,-43.200927734375,2023-09-09 21:57:08.0170,1694314628.0169291,0.06433023512363434,-0.036147285252809525,0.02264220640063286,0.06259161233901978,0.8212584853172302,-0.604736328125,
0,2023-09-09 21:56:43.3680,02:41,10,1,2023-09-09 21:57:08.4790,1694314628.478891,-0.0004543352697510272,-0.004126301966607571,-0.0035292210523039103,0.0066986083984375,-0.0148468017578125,-1.0002593994140625,106.75177001953125,-24.962554931640625,-43.03411865234375,2023-09-09 21:57:08.1170,1694314628.116788,-0.08742014318704605,0.018083730712532997,-0.018999779596924782,0.048996031284332275,0.7496795654296875,-0.567108154296875,
0,2023-09-09 21:56:43.3680,02:41,10,1,2023-09-09 21:57:08.5810,1694314628.5805578,-0.00021544973424170166,-0.002139317337423563,-0.001990712946280837,0.0056610107421875,-0.0145416259765625,-1.0013885498046875,106.81591796875,-24.918609619140625,-43.08509826660156,2023-09-09 21:57:08.2170,1694314628.216601,-0.03220069780945778,0.03235028311610222,0.06799764186143875,0.06544501334428787,0.9219512343406677,-0.5835113525390625,
0,2023-09-09 21:56:43.3680,02:41,10,1,2023-09-09 21:57:08.6790,1694314628.6790628,-0.0008556736283935606,-0.005345230456441641,-0.00177925790194422,0.0064697265625,-0.015594482421875,-1.0009918212890625,106.64288330078125,-25.128402709960938,-43.104248046875,2023-09-09 21:57:08.3160,1694314628.316417,0.08653128147125244,0.020842500030994415,-0.00021350738825276494,0.06388861685991287,0.807952880859375,-0.5935821533203125,
0,2023-09-09 21:56:43.3680,02:41,10,1,2023-09-09 21:57:08.7800,1694314628.780424,-0.003796336008235812,-0.002600310370326042,-0.0013164004776626825,0.00750732421875,-0.0141448974609375,-1.003753662109375,106.83470153808594,-25.31109619140625,-42.01387023925781,2023-09-09 21:57:08.4160,1694314628.416261,0.18315015733242035,-0.10142628848552704,-0.005997993052005768,0.10539251565933228,0.7712859511375427,-0.5789794921875,
0,2023-09-09 21:56:43.3680,02:41,10,1,2023-09-09 21:57:08.8810,1694314628.880707,0.0033832797780632973,-0.005525526590645313,-0.004585430957376957,0.00665283203125,-0.01629638671875,-1.0022125244140625,106.74848937988281,-25.344512939453125,-41.98143005371094,2023-09-09 21:57:08.5160,1694314628.5162501,0.1605895310640335,0.012726516462862492,-0.021461138501763344,0.03637699782848358,0.8250884413719177,-0.592681884765625,
0,2023-09-09 21:56:43.3680,02:41,10,1,2023-09-09 21:57:08.9810,1694314628.980643,-0.002243713242933154,-0.0064983791671693325,-0.0017251957906410098,0.0064697265625,-0.015350341796875,-1.0006561279296875,106.773681640625,-25.207656860351562,-42.28068542480469,2023-09-09 21:57:08.6160,1694314628.616178,0.3313600718975067,0.034738607704639435,-0.0032764754723757505,0.02799995243549347,0.9277190566062927,-0.6094818711280823,
0,2023-09-09 21:56:43.3680,02:41,10,1,2023-09-09 21:57:09.0810,1694314629.0806808,-0.0003294330381322652,-0.003914047963917255,-0.0017576862592250109,0.0054931640625,-0.01507568359375,-1.001708984375,106.78959655761719,-25.320465087890625,-42.10520935058594,2023-09-09 21:57:08.7160,1694314628.715827,0.04500587657094002,-0.012708403170108795,-0.00549958273768425,0.09416204690933228,0.7733306884765625,-0.6005401611328125,
0,2023-09-09 21:56:43.3680,02:41,10,1,2023-09-09 21:57:09.1780,1694314629.178222,8.948221511673182e-05,-0.004205930046737194,-0.002600576728582382,0.005523681640625,-0.0133209228515625,-1.00054931640625,106.73464965820312,-25.150787353515625,-42.24249267578125,2023-09-09 21:57:08.8220,1694314628.822157,0.20924055576324463,-0.03475099056959152,0.04619680345058441,0.07453924417495728,0.8778075575828552,-0.6154938340187073,
0,2023-09-09 21:56:43.3680,02:41,10,1,2023-09-09 21:57:09.2820,1694314629.2815862,-0.000999750685878098,-0.003925499506294727,-0.00245117349550128,0.003997802734375,-0.013397216796875,-1.001068115234375,106.79060363769531,-25.199325561523438,-42.18043518066406,2023-09-09 21:57:08.9160,1694314628.9155989,0.04803428798913956,0.08163567632436752,-0.08993636816740036,0.04710395634174347,0.8126525282859802,-0.6371459364891052,
0,2023-09-09 21:56:43.3680,02:41,10,1,2023-09-09 21:57:09.3800,1694314629.380487,-0.0035814191214740276,-0.004620318301022053,-0.0036637107841670513,0.0042724609375,-0.0145721435546875,-1.0022125244140625,106.92794799804688,-25.320892333984375,-42.30113220214844,2023-09-09 21:57:09.0150,1694314629.015218,0.017847757786512375,-0.05690409243106842,0.01675618812441826,0.10250861197710037,0.8311004638671875,-0.537811279296875,
0,2023-09-09 21:56:43.3680,02:41,10,1,2023-09-09 21:57:09.4810,1694314629.4805732,-0.0023281353060156107,-0.0043769050389528275,-0.005167065188288689,0.007568359375,-0.0147705078125,-1.002471923828125,106.95407104492188,-25.363327026367188,-42.249114990234375,2023-09-09 21:57:09.1150,1694314629.115047,-0.01992771588265896,-0.020429173484444618,-0.04233116656541824,0.08543399721384048,0.73504638671875,-0.6025696396827698,
0,2023-09-09 21:56:43.3680,02:41,10,1,2023-09-09 21:57:09.5800,1694314629.58038,-0.0013403689954429865,-0.002186721656471491,-0.002694852650165558,0.005340576171875,-0.0157470703125,-1.0016937255859375,107.04676818847656,-25.480361938476562,-42.14326477050781,2023-09-09 21:57:09.2150,1694314629.214839,0.04468696191906929,0.008887437172234058,-0.026350734755396843,0.07049565762281418,0.807952880859375,-0.6436767578125,
0,2023-09-09 21:56:43.3680,02:41,10,1,2023-09-09 21:57:09.6800,1694314629.680336,-0.0018777948571369052,-0.0051928977482020855,-0.00307621737010777,0.005584716796875,-0.0157012939453125,-1.0026397705078125,106.80180358886719,-25.261886596679688,-42.27491760253906,2023-09-09 21:57:09.3150,1694314629.314739,-0.16520893573760986,0.005144762806594372,0.008581515401601791,0.12081917375326157,0.8289947509765625,-0.583953857421875,
0,2023-09-09 21:56:43.3680,02:41,10,1,2023-09-09 21:57:09.7810,1694314629.780583,0.0001030643325066194,-0.002266349969431758,-0.0033364081755280495,0.00634765625,-0.015533447265625,-1.0029296875,106.93643188476562,-25.642471313476562,-42.17259216308594,2023-09-09 21:57:09.4150,1694314629.4148788,0.11898455768823624,-0.08454383909702301,0.041830215603113174,0.08007819205522537,0.8169859647750854,-0.671142578125,
0,2023-09-09 21:56:43.3680,02:41,10,1,2023-09-09 21:57:09.8810,1694314629.880559,-0.0027206854429095984,-0.005763613153249025,-0.0008527441532351077,0.005523681640625,-0.0141143798828125,-1.001556396484375,106.88270568847656,-25.410171508789062,-42.239898681640625,2023-09-09 21:57:09.5150,1694314629.5146189,0.04736064374446869,0.07923989742994308,-0.12131952494382858,0.048156775534152985,0.780914306640625,-0.6122131943702698,
0,2023-09-09 21:56:43.3680,02:41,10,1,2023-09-09 21:57:09.9800,1694314629.980435,-0.0017251957906410098,-0.005709018558263779,-0.004307130351662636,0.0062103271484375,-0.015167236328125,-1.001861572265625,106.81875610351562,-25.133560180664062,-42.184967041015625,2023-09-09 21:57:09.6140,1694314629.614476,0.23560665547847748,-0.060208678245544434,0.03707534074783325,0.04524238407611847,0.8821105360984802,-0.606536865234375,
0,2023-09-09 21:56:43.3680,02:41,10,1,2023-09-09 21:57:10.0810,1694314630.080573,-0.0005001416429877281,-0.004705273080617189,-0.0028583707753568888,0.0068817138671875,-0.0146484375,-1.0026702880859375,106.88117980957031,-25.09490966796875,-41.897705078125,2023-09-09 21:57:09.7140,1694314629.714258,-0.25496619939804077,0.04822525382041931,-0.05068383738398552,0.05130011588335037,0.7446441650390625,-0.5730591416358948,
0,2023-09-09 21:56:43.3680,02:41,10,1,2023-09-09 21:57:10.1780,1694314630.177823,-0.000333161442540586,-0.005644835997372866,-0.0014988270122557878,0.0064849853515625,-0.015777587890625,-1.0020294189453125,106.927001953125,-25.401153564453125,-41.94853210449219,2023-09-09 21:57:09.8140,1694314629.814184,-0.2725479006767273,0.040580518543720245,0.0028778233099728823,0.06811533123254776,0.7816467881202698,-0.5677185654640198,
0,2023-09-09 21:56:43.3680,02:41,10,1,2023-09-09 21:57:10.2790,1694314630.278692,0.002171008847653866,-0.0028964539524167776,-0.001341434195637703,0.0044097900390625,-0.0153961181640625,-1.0019683837890625,106.81022644042969,-25.28472900390625,-41.914306640625,2023-09-09 21:57:09.9140,1694314629.914052,0.10005541890859604,-0.022380471229553223,0.0285404771566391,0.06896978616714478,0.835174560546875,-0.5955352783203125,
0,2023-09-09 21:56:43.3680,02:41,10,1,2023-09-09 21:57:10.3800,1694314630.380372,-0.002989398315548897,-0.0032088428270071745,-0.0015387744642794132,0.00543212890625,-0.0146026611328125,-1.0005950927734375,106.90933227539062,-25.255279541015625,-42.263336181640625,2023-09-09 21:57:10.0140,1694314630.0139031,0.22301001846790314,-0.011856324039399624,-0.06784208863973618,0.06993110477924347,0.8451842069625854,-0.6139525771141052,
0,2023-09-09 21:56:43.3680,02:41,10,1,2023-09-09 21:57:10.4800,1694314630.4800792,-0.0012096078135073185,-0.00586774293333292,-0.004977980628609657,0.006072998046875,-0.0148162841796875,-1.0020294189453125,106.78694152832031,-25.262557983398438,-42.18171691894531,2023-09-09 21:57:10.1140,1694314630.113532,-0.03877018019556999,0.02020999789237976,-0.02736576646566391,0.05029301345348358,0.7588348388671875,-0.5814972519874573,
0,2023-09-09 21:56:43.3680,02:41,10,1,2023-09-09 21:57:10.5800,1694314630.57971,-0.000990695902146399,-0.005636580288410187,-0.0028213527984917164,0.0054931640625,-0.01544189453125,-1.0029754638671875,106.94172668457031,-25.446136474609375,-41.79585266113281,2023-09-09 21:57:10.2130,1694314630.213303,-0.12502411007881165,-0.026894129812717438,0.012617336586117744,0.14498905092477798,0.812408447265625,-0.5828857421875,
0,2023-09-09 21:56:43.3680,02:41,10,1,2023-09-09 21:57:10.6800,1694314630.6804528,-0.002531867241486907,-0.003323891432955861,-0.003916444722563028,0.0062713623046875,-0.0157318115234375,-1.003631591796875,106.97189331054688,-25.4364013671875,-42.30108642578125,2023-09-09 21:57:10.3130,1694314630.3131561,0.13804014027118683,-0.019222894683480263,-0.00963437370955944,0.07414252310991287,0.855361819267273,-0.64324951171875,
0,2023-09-09 21:56:43.3680,02:41,10,1,2023-09-09 21:57:10.7790,1694314630.778677,-0.001478320686146617,-0.003296993440017104,-0.004009388852864504,0.0060882568359375,-0.0148773193359375,-1.0005645751953125,107.12936401367188,-25.736892700195312,-41.64167785644531,2023-09-09 21:57:10.4130,1694314630.413229,0.014066935516893864,0.039664123207330704,-0.030785664916038513,0.0031433776021003723,0.767608642578125,-0.60888671875,
0,2023-09-09 21:56:43.3680,02:41,10,1,2023-09-09 21:57:10.8780,1694314630.877837,-0.002689792774617672,-0.004314054735004902,-0.0021494373213499784,0.0086517333984375,-0.0134124755859375,-1.00396728515625,107.19712829589844,-25.958282470703125,-40.789154052734375,2023-09-09 21:57:10.5130,1694314630.512913,-0.022318636998534203,0.04927946627140045,0.012381047941744328,0.08082583546638489,0.8693084120750427,-0.5616149306297302,
0,2023-09-09 21:56:43.3680,02:41,10,1,2023-09-09 21:57:10.9790,1694314630.9786901,-0.0016668725293129683,-0.00711836339905858,-0.0002663161139935255,0.0053863525390625,-0.0149993896484375,-1.0017852783203125,107.08134460449219,-25.689376831054688,-41.96052551269531,2023-09-09 21:57:10.6130,1694314630.612637,0.05593402311205864,-0.0178416445851326,0.014538107439875603,0.07266241312026978,0.833648681640625,-0.6319580078125,
0,2023-09-09 21:56:43.3680,02:41,10,1,2023-09-09 21:57:11.0790,1694314631.079454,0.0017086841398850083,-0.006689327768981457,-0.0046631949953734875,0.0051727294921875,-0.0155181884765625,-1.00225830078125,106.99501037597656,-25.720123291015625,-41.78678894042969,2023-09-09 21:57:10.7130,1694314630.712617,0.10578081011772156,-0.07595022767782211,-0.030635563656687737,0.14691168814897537,0.7397765517234802,-0.571868896484375,
0,2023-09-09 21:56:43.3680,02:41,10,1,2023-09-09 21:57:11.1770,1694314631.176707,-0.0004689826746471226,-0.0035720979794859886,-0.002642388455569744,0.0066680908203125,-0.0144500732421875,-1.00091552734375,106.99501037597656,-25.720123291015625,-41.78678894042969,2023-09-09 21:57:10.8130,1694314630.812604,0.06855593621730804,0.019320903345942497,-0.0031727789901196957,0.02693183720111847,0.7829436659812927,-0.6001739501953125,
0,2023-09-09 21:56:43.3680,02:41,10,1,2023-09-09 21:57:11.2680,1694314631.268162,-0.002290318487212062,-0.005024053156375885,-0.0009217200567945838,0.0077667236328125,-0.0127410888671875,-1.0006103515625,106.99342346191406,-25.886428833007812,-40.723724365234375,2023-09-09 21:57:10.9130,1694314630.91263,-0.1390053629875183,0.04015561193227768,0.005806668195873499,0.06010442227125168,0.82232666015625,-0.554290771484375,
0,2023-09-09 21:56:43.3680,02:41,10,1,2023-09-09 21:57:11.3800,1694314631.380142,-0.001927862293086946,-0.004072505980730057,-0.0006697850185446441,0.0070953369140625,-0.01422119140625,-1.0009765625,106.95591735839844,-25.67926025390625,-42.13706970214844,2023-09-09 21:57:11.0120,1694314631.01226,0.1257663071155548,0.010716095566749573,-0.07586339116096497,0.008224532008171082,0.7710570693016052,-0.6464232802391052,
