SessionID,SessionDate,SessionDuration,SessionFrequency,RecordID,Timestamp,timeIntervalSince1970,GyroX,GyroY,GyroZ,AccX,AccY,AccZ,MagX,MagY,MagZ,WatchTimestamp,WatchtImeIntervalSince1970,WatchGyroX,WatchGyroY,WatchGyroZ,WatchAccX,WatchAccY,WatchAccZ
0,2023-09-09 21:15:39.2530,03:00,10,1,2023-09-09 21:15:39.3680,1694312139.367876,-0.00213612150400877,-0.003959587775170803,-0.0033633061684668064,-0.022430419921875,-0.0054931640625,-1.0023040771484375,98.49855041503906,-22.753128051757812,-40.58583068847656,2023-09-09 21:15:38.9700,1694312138.9695292,-0.08665235340595245,0.18652068078517914,0.0023429980501532555,-0.08036801964044571,-0.6714171767234802,-0.7504425048828125,
0,2023-09-09 21:15:39.2530,03:00,10,1,2023-09-09 21:15:39.4650,1694312139.464562,0.0001531317684566602,-0.0075721656903624535,-0.0028043086640536785,-0.0238800048828125,-0.0045928955078125,-1.0007476806640625,98.40196228027344,-22.614364624023438,-40.67010498046875,2023-09-09 21:15:39.0870,1694312139.087156,-0.023266855627298355,0.11033323407173157,-0.03448925167322159,-0.041091904044151306,-0.6412506103515625,-0.7370758056640625,
0,2023-09-09 21:15:39.2530,03:00,10,1,2023-09-09 21:15:39.5640,1694312139.5641088,-0.001645567244850099,-0.0006154565489850938,-0.002894856035709381,-0.022552490234375,-0.0041351318359375,-1.001953125,98.40196228027344,-22.614364624023438,-40.67010498046875,2023-09-09 21:15:39.1660,1694312139.1661339,0.04739200323820114,0.07433848083019257,-0.019594259560108185,-0.0786285363137722,-0.6331023573875427,-0.7504730224609375,
0,2023-09-09 21:15:39.2530,03:00,10,1,2023-09-09 21:15:39.6650,1694312139.6645122,-0.0029923277907073498,-0.0003557983145583421,-0.003968908917158842,-0.0223846435546875,-0.0047454833984375,-1.00250244140625,98.51025390625,-22.662490844726562,-40.17832946777344,2023-09-09 21:15:39.2650,1694312139.265182,-0.10748712718486786,0.09934649616479874,-0.02301199361681938,-0.0535125769674778,-0.6315612196922302,-0.756561279296875,
0,2023-09-09 21:15:39.2530,03:00,10,1,2023-09-09 21:15:39.7640,1694312139.7643561,-0.002255431143566966,-0.004289287142455578,-0.0031638352666050196,-0.0236663818359375,-0.0041046142578125,-1.001373291015625,98.37591552734375,-22.561233520507812,-40.735565185546875,2023-09-09 21:15:39.3650,1694312139.365083,-0.07430753111839294,-0.013354352675378323,0.003743288107216358,-0.043685898184776306,-0.6587371826171875,-0.762237548828125,
0,2023-09-09 21:15:39.2530,03:00,10,1,2023-09-09 21:15:39.8640,1694312139.864151,-0.0022242721170186996,-0.004190484061837196,-0.003977430984377861,-0.021881103515625,-0.0030059814453125,-1.00048828125,98.31353759765625,-22.482070922851562,-40.461883544921875,2023-09-09 21:15:39.4650,1694312139.4649901,-0.02459716983139515,-0.04083937406539917,0.018604226410388947,-0.051208484917879105,-0.6467284560203552,-0.7511748671531677,
0,2023-09-09 21:15:39.2530,03:00,10,1,2023-09-09 21:15:39.9650,1694312139.965032,-0.0008524778531864285,-0.003323092358186841,-0.004727909807115793,-0.0223388671875,-0.004791259765625,-0.9997711181640625,98.42755126953125,-22.861190795898438,-40.92964172363281,2023-09-09 21:15:39.5650,1694312139.5648,0.016140006482601166,0.0050596753135323524,-0.010070761665701866,-0.0586700476706028,-0.6709594130516052,-0.7585296630859375,
0,2023-09-09 21:15:39.2530,03:00,10,1,2023-09-09 21:15:40.0650,1694312140.065467,-0.0016591493040323257,-0.005417136009782553,-0.00024154871061909944,-0.02294921875,-0.0040740966796875,-1.0006561279296875,98.30274963378906,-22.7252197265625,-40.972503662109375,2023-09-09 21:15:39.6650,1694312139.664732,0.026161281391978264,0.002750581130385399,0.001803841209039092,-0.0541992112994194,-0.6366118788719177,-0.7639617323875427,
0,2023-09-09 21:15:39.2530,03:00,10,1,2023-09-09 21:15:40.1650,1694312140.165022,-0.0027830032631754875,-0.003734284546226263,-0.00020213393145240843,-0.0233917236328125,-0.005218505859375,-1.0029296875,98.14176940917969,-22.635330200195312,-41.060791015625,2023-09-09 21:15:39.7640,1694312139.7644181,0.01844071038067341,-0.02343987673521042,0.033395491540431976,-0.057983387261629105,-0.61883544921875,-0.7496490478515625,
0,2023-09-09 21:15:39.2530,03:00,10,1,2023-09-09 21:15:40.2550,1694312140.254698,-0.0027830032631754875,-0.003734284546226263,-0.00020213393145240843,-0.022186279296875,-0.004730224609375,-1.0007781982421875,98.23716735839844,-22.50360107421875,-41.22111511230469,2023-09-09 21:15:39.8640,1694312139.864097,-0.03381543606519699,-0.03360595926642418,0.020381487905979156,-0.0525665283203125,-0.6423187255859375,-0.7586517333984375,
0,2023-09-09 21:15:39.2530,03:00,10,1,2023-09-09 21:15:40.3550,1694312140.354735,-0.0035260252188891172,-0.0015907060587778687,-0.005260009318590164,-0.0230255126953125,-0.0037841796875,-1.0004119873046875,98.32063293457031,-22.603546142578125,-41.439453125,2023-09-09 21:15:39.9640,1694312139.964237,-0.010801795870065689,-0.035355791449546814,0.009967362508177757,-0.0529937744140625,-0.6378631591796875,-0.7625885009765625,
0,2023-09-09 21:15:39.2530,03:00,10,1,2023-09-09 21:15:40.4550,1694312140.454767,-0.003929493948817253,-0.005170261021703482,-0.0006820355774834752,-0.0232391357421875,-0.0053558349609375,-0.9999542236328125,98.16188049316406,-22.488204956054688,-41.36451721191406,2023-09-09 21:15:40.0640,1694312140.063933,-0.022107647731900215,-0.009875066578388214,0.025152940303087234,-0.06138608604669571,-0.6361388564109802,-0.7663115859031677,
0,2023-09-09 21:15:39.2530,03:00,10,1,2023-09-09 21:15:40.5550,1694312140.5548592,-0.0017102820565924048,-0.005575061310082674,-0.001767273643054068,-0.020782470703125,-0.00469970703125,-1.003265380859375,98.17204284667969,-22.440704345703125,-41.49504089355469,2023-09-09 21:15:40.1640,1694312140.163682,-0.04528607055544853,0.025977740064263344,-0.027597956359386444,-0.059371933341026306,-0.65301513671875,-0.77001953125,
0,2023-09-09 21:15:39.2530,03:00,10,1,2023-09-09 21:15:40.6550,1694312140.655009,-0.0034557178150862455,-0.002966495230793953,-0.0010956244077533484,-0.0242919921875,-0.004730224609375,-1.000274658203125,98.31779479980469,-22.674468994140625,-41.55079650878906,2023-09-09 21:15:40.2640,1694312140.2636452,-0.09376346319913864,0.03787194937467575,0.002089298563078046,-0.0555267296731472,-0.6352843642234802,-0.7604369521141052,
0,2023-09-09 21:15:39.2530,03:00,10,1,2023-09-09 21:15:40.7550,1694312140.755079,0.0010269149206578732,-0.0034993935842067003,-0.004502340219914913,-0.0227813720703125,-0.0050811767578125,-1.00042724609375,98.0283203125,-22.207489013671875,-42.168182373046875,2023-09-09 21:15:40.3640,1694312140.363635,-0.023039553314447403,0.015462381765246391,-0.11722308397293091,-0.0615234300494194,-0.6475677490234375,-0.7477569580078125,
0,2023-09-09 21:15:39.2530,03:00,10,1,2023-09-09 21:15:40.8540,1694312140.854157,-0.0023180153220891953,-0.003734018187969923,-0.0014788532862439752,-0.0228118896484375,-0.004486083984375,-1.001220703125,98.21711730957031,-22.286163330078125,-41.95964050292969,2023-09-09 21:15:40.4630,1694312140.4631429,-0.3879828453063965,-0.006823881529271603,-0.3511117994785309,-0.1006622165441513,-0.6138152480125427,-0.6746062636375427,
0,2023-09-09 21:15:39.2530,03:00,10,1,2023-09-09 21:15:40.9540,1694312140.953764,0.0004644552827812731,-0.002968359272927046,-0.0018761969404295087,-0.0229949951171875,-0.0049591064453125,-1.0007171630859375,98.19267272949219,-22.172943115234375,-41.82792663574219,2023-09-09 21:15:40.5630,1694312140.563122,-1.2944724559783936,-0.10161670297384262,-1.0108295679092407,-0.06671141926199198,-0.5655059218406677,-0.5938568115234375,
0,2023-09-09 21:15:39.2530,03:00,10,1,2023-09-09 21:15:41.0550,1694312141.054863,-0.003153981640934944,-0.0033071134239435196,-0.0013960290234535933,-0.0235748291015625,-0.0037384033203125,-1.0006256103515625,98.31341552734375,-22.349105834960938,-41.62791442871094,2023-09-09 21:15:40.6630,1694312140.6629992,-1.8054436445236206,-0.16821782290935516,-1.8319834470748901,-0.0948791354894638,-0.3630828857421875,-0.715423583984375,
0,2023-09-09 21:15:39.2530,03:00,10,1,2023-09-09 21:15:41.1540,1694312141.153936,-0.0015355786308646202,-0.004355866461992264,-0.002781938062980771,-0.022491455078125,-0.00457763671875,-0.9985504150390625,98.2022705078125,-22.15594482421875,-41.78923034667969,2023-09-09 21:15:40.7630,1694312140.762645,-1.984368920326233,-0.32386869192123413,-2.5836904048919678,-0.003936767578125,-0.2335357517004013,-0.9004364013671875,
0,2023-09-09 21:15:39.2530,03:00,10,1,2023-09-09 21:15:41.2550,1694312141.254684,-0.0021899172570556402,-0.004098338540643454,-0.0018865832826122642,-0.0236358642578125,-0.004852294921875,-1.001708984375,98.25569152832031,-22.304519653320312,-41.61070251464844,2023-09-09 21:15:40.8630,1694312140.8625488,-1.219725489616394,-0.2912653386592865,-2.9985339641571045,-0.1079406663775444,0.0685577504336834,-1.2075347900390625,
0,2023-09-09 21:15:39.2530,03:00,10,1,2023-09-09 21:15:41.3550,1694312141.354538,-0.001270061475224793,-0.0020849888678640127,-0.0016788567882031202,-0.0232391357421875,-0.004638671875,-1.002227783203125,98.35331726074219,-22.34637451171875,-41.24383544921875,2023-09-09 21:15:40.9620,1694312140.962409,-1.3782743215560913,-0.08923780173063278,-2.7581560611724854,0.0616912841796875,0.2957763671875,-1.1256866455078125,
0,2023-09-09 21:15:39.2530,03:00,10,1,2023-09-09 21:15:41.4550,1694312141.454969,-0.002669286448508501,-0.006710633169859648,-0.0033017871901392937,-0.0231170654296875,-0.0046539306640625,-1.0009765625,98.18708801269531,-22.280044555664062,-41.46492004394531,2023-09-09 21:15:41.0620,1694312141.062367,-0.2879889905452728,0.28427451848983765,-1.7994574308395386,0.1278991661965847,0.33404541015625,-1.069183349609375,
0,2023-09-09 21:15:39.2530,03:00,10,1,2023-09-09 21:15:41.5550,1694312141.5545459,-0.00014700648898724467,-0.003100185887888074,-0.0022415826097130775,-0.0223236083984375,-0.00537109375,-1.00250244140625,98.1383056640625,-22.049362182617188,-41.745269775390625,2023-09-09 21:15:41.1620,1694312141.162037,-1.3336056470870972,0.319732129573822,-0.2880810797214508,0.4108428806066513,0.5019378662109375,-0.89361572265625,
0,2023-09-09 21:15:39.2530,03:00,10,1,2023-09-09 21:15:41.6550,1694312141.654634,-0.0020746025256812572,-0.0037404096219688654,-0.003525492735207081,-0.02386474609375,-0.0043182373046875,-1.0002593994140625,98.13761901855469,-22.202682495117188,-41.48429870605469,2023-09-09 21:15:41.2620,1694312141.261787,0.6321583390235901,-0.3010272979736328,0.46460938453674316,0.1579132080078125,-0.0583648681640625,-0.6756744384765625,
0,2023-09-09 21:15:39.2530,03:00,10,1,2023-09-09 21:15:41.7550,1694312141.7549372,-0.0024924525059759617,-0.005675462540239096,-0.0027915253303945065,-0.0230255126953125,-0.0043487548828125,-1.0010223388671875,98.222900390625,-22.133026123046875,-41.4527587890625,2023-09-09 21:15:41.3620,1694312141.361751,1.1735074520111084,0.20875141024589539,0.5668007731437683,0.3613433800637722,0.761016845703125,-1.18096923828125,
0,2023-09-09 21:15:39.2530,03:00,10,1,2023-09-09 21:15:41.8550,1694312141.854774,-0.0020626182667911053,-0.003983556292951107,-0.0015038870042189956,-0.02227783203125,-0.0042266845703125,-1.0009307861328125,98.312255859375,-22.431015014648438,-41.18962097167969,2023-09-09 21:15:41.4620,1694312141.4615169,-1.3441135883331299,0.1768098622560501,-0.3749575912952423,-0.007171625271439552,0.3418121039867401,-0.9954070448875427,
0,2023-09-09 21:15:39.2530,03:00,10,1,2023-09-09 21:15:41.9540,1694312141.95421,-0.001787779969163239,-0.007507450878620148,-0.003637611633166671,-0.0242462158203125,-0.0039215087890625,-0.999542236328125,98.33131408691406,-22.471771240234375,-41.51448059082031,2023-09-09 21:15:41.5610,1694312141.561399,-0.7752598524093628,0.31969618797302246,-0.1975606232881546,0.030181884765625,0.2610015869140625,-0.97930908203125,
0,2023-09-09 21:15:39.2530,03:00,10,1,2023-09-09 21:15:42.0550,1694312142.054541,0.0004942826926708221,-0.00635030772536993,-0.002132659312337637,-0.0240325927734375,-0.0045013427734375,-1.00091552734375,98.24464416503906,-22.513076782226562,-41.62767028808594,2023-09-09 21:15:41.6630,1694312141.663003,-0.8565075397491455,0.2428828924894333,-0.08182776719331741,0.0502319373190403,0.3823699951171875,-0.92095947265625,
0,2023-09-09 21:15:39.2530,03:00,10,1,2023-09-09 21:15:42.1550,1694312142.154883,-0.0029529130551964045,-0.004458930809050798,-0.002415487077087164,-0.022369384765625,-0.004364013671875,-1.0001678466796875,98.24467468261719,-22.597808837890625,-41.49760437011719,2023-09-09 21:15:41.7610,1694312141.7610369,-0.73749178647995,0.2467697709798813,-0.40977147221565247,0.0990447960793972,0.4447326362133026,-0.7900084853172302,
0,2023-09-09 21:15:39.2530,03:00,10,1,2023-09-09 21:15:42.2540,1694312142.2535439,-0.0017715347930788994,-0.0057162088342010975,-0.0031348068732768297,-0.024749755859375,-0.0057830810546875,-1.0032806396484375,98.26585388183594,-22.518478393554688,-41.73260498046875,2023-09-09 21:15:41.8610,1694312141.8608742,-0.776136040687561,0.10101629793643951,-0.2315530776977539,0.054489124566316605,0.733123779296875,-0.81817626953125,
0,2023-09-09 21:15:39.2530,03:00,10,1,2023-09-09 21:15:42.3550,1694312142.3546,-0.0003384877636563033,-0.001636246219277382,-0.004363589454442263,-0.023193359375,-0.0044097900390625,-1.0028076171875,98.07133483886719,-22.264938354492188,-41.87675476074219,2023-09-09 21:15:41.9610,1694312141.96062,0.22903983294963837,0.10168115794658661,0.14896279573440552,0.026092514395713806,0.76898193359375,-0.790679931640625,
0,2023-09-09 21:15:39.2530,03:00,10,1,2023-09-09 21:15:42.4550,1694312142.455126,-0.001546763931401074,-0.003757187630981207,-0.003308444982394576,-0.0221405029296875,-0.004852294921875,-1.000457763671875,98.0355224609375,-22.379165649414062,-41.45774841308594,2023-09-09 21:15:42.0610,1694312142.06066,-0.30853500962257385,0.010863236151635647,0.04043622314929962,0.0796508640050888,0.506134033203125,-0.8156280517578125,
0,2023-09-09 21:15:39.2530,03:00,10,1,2023-09-09 21:15:42.5550,1694312142.554885,-0.001663410454057157,-0.004043743945658207,-0.004340686369687319,-0.02294921875,-0.005096435546875,-1.003326416015625,98.07106018066406,-22.277984619140625,-41.87733459472656,2023-09-09 21:15:42.1600,1694312142.1604528,-0.5490604043006897,-0.03579108417034149,0.05570365861058235,0.0667724534869194,0.5411224365234375,-0.81146240234375,
0,2023-09-09 21:15:39.2530,03:00,10,1,2023-09-09 21:15:42.6540,1694312142.6542768,-0.0015211976133286953,-0.005253884010016918,-0.0033694314770400524,-0.0246124267578125,-0.0042877197265625,-0.9994354248046875,98.30757141113281,-22.589874267578125,-41.34660339355469,2023-09-09 21:15:42.2600,1694312142.26026,0.19148139655590057,-0.07666328549385071,0.09003390371799469,0.1004180759191513,0.6476287245750427,-0.7683258056640625,
0,2023-09-09 21:15:39.2530,03:00,10,1,2023-09-09 21:15:42.7540,1694312142.753963,-0.001924932817928493,-0.004406466148793697,-0.002132659312337637,-0.023712158203125,-0.0039825439453125,-1.0005645751953125,98.19313049316406,-22.5186767578125,-41.70513916015625,2023-09-09 21:15:42.3600,1694312142.360025,0.11795791238546371,-0.03527216613292694,0.023524781689047813,0.0713195651769638,0.621856689453125,-0.7802276611328125,
0,2023-09-09 21:15:39.2530,03:00,10,1,2023-09-09 21:15:42.8550,1694312142.8551059,0.0001739044237183407,-0.0018527611391618848,-0.002240517409518361,-0.02252197265625,-0.0045166015625,-1.0016937255859375,98.24417114257812,-22.4346923828125,-41.34332275390625,2023-09-09 21:15:42.4600,1694312142.460009,-0.10899314284324646,-0.008150136098265648,0.02351316437125206,0.0690765529870987,0.596923828125,-0.7956694960594177,
0,2023-09-09 21:15:39.2530,03:00,10,1,2023-09-09 21:15:42.9550,1694312142.95452,-0.0036309538409113884,-0.004848817363381386,-0.002915628720074892,-0.022705078125,-0.0045166015625,-1.0002899169921875,98.27511596679688,-22.441452026367188,-41.42234802246094,2023-09-09 21:15:42.5600,1694312142.559895,0.06588618457317352,-0.002574409358203411,0.03880760073661804,0.07110595703125,0.6132049560546875,-0.79779052734375,
0,2023-09-09 21:15:39.2530,03:00,10,1,2023-09-09 21:15:43.0540,1694312143.05438,-0.0008077367674559355,-0.003129746997728944,-0.0033135050907731056,-0.0228424072265625,-0.0050506591796875,-1.0008392333984375,98.42947387695312,-22.549072265625,-41.55755615234375,2023-09-09 21:15:42.6600,1694312142.659647,-0.054142143577337265,-0.002343379892408848,0.035719629377126694,0.0760497972369194,0.5788268446922302,-0.7994841933250427,
0,2023-09-09 21:15:39.2530,03:00,10,1,2023-09-09 21:15:43.1670,1694312143.1669621,-0.0005811017472296953,-0.002031459240242839,-0.0018112158868461847,-0.0224609375,-0.005279541015625,-1.00177001953125,98.29862976074219,-22.6278076171875,-41.013916015625,2023-09-09 21:15:42.7590,1694312142.759397,-0.06714942306280136,0.003664978314191103,0.021430373191833496,0.0802459642291069,0.6078033447265625,-0.785888671875,
0,2023-09-09 21:15:39.2530,03:00,10,1,2023-09-09 21:15:43.2630,1694312143.262965,-0.0007653924985788763,-0.0032495891209691763,-0.004454935900866985,-0.0240478515625,-0.0046844482421875,-1.00164794921875,98.20077514648438,-22.343292236328125,-41.420928955078125,2023-09-09 21:15:42.8590,1694312142.85935,-0.009565489366650581,-0.014316685497760773,0.04120620712637901,0.0868987888097763,0.6298980116844177,-0.7774199843406677,
0,2023-09-09 21:15:39.2530,03:00,10,1,2023-09-09 21:15:43.3550,1694312143.354937,-0.0014349111588671803,-0.005371862091124058,-0.004138285759836435,-0.0246429443359375,-0.0041656494140625,-1.001708984375,98.19384765625,-22.314437866210938,-41.358734130859375,2023-09-09 21:15:42.9590,1694312142.959213,-0.03475259989500046,0.005201355554163456,-0.003166582901030779,0.0860138013958931,0.6201781630516052,-0.7828521728515625,
0,2023-09-09 21:15:39.2530,03:00,10,1,2023-09-09 21:15:43.4540,1694312143.454265,-0.0025987126864492893,-0.004348143003880978,-9.081379539566115e-05,-0.0231781005859375,-0.004974365234375,-1.0013275146484375,98.1334228515625,-22.230636596679688,-41.675933837890625,2023-09-09 21:15:43.0590,1694312143.058885,0.021990438923239708,-0.010584531351923943,0.017182962968945503,0.07818601280450821,0.5977019667625427,-0.7830657958984375,
0,2023-09-09 21:15:39.2530,03:00,10,1,2023-09-09 21:15:43.5540,1694312143.5544229,-0.002007757080718875,-0.002752909669652581,0.0003251719754189253,-0.0225982666015625,-0.005279541015625,-1.00225830078125,98.24546813964844,-22.49462890625,-41.614105224609375,2023-09-09 21:15:43.1590,1694312143.158733,0.04328114539384842,-0.013299491256475449,-0.00012242328375577927,0.0849456787109375,0.6215057373046875,-0.7853546142578125,
0,2023-09-09 21:15:39.2530,03:00,10,1,2023-09-09 21:15:43.6540,1694312143.654269,-0.0006836334359832108,-0.00726536987349391,-0.0034495925065129995,-0.0238189697265625,-0.003936767578125,-1.0014190673828125,98.19686889648438,-22.248687744140625,-41.627197265625,2023-09-09 21:15:43.2590,1694312143.2585359,-0.024507954716682434,-0.0014911685138940811,0.01140010915696621,0.0803527683019638,0.6002960205078125,-0.7904052734375,
0,2023-09-09 21:15:39.2530,03:00,10,1,2023-09-09 21:15:43.7540,1694312143.754274,-0.0017584852175787091,-0.004479170776903629,-0.004729773849248886,-0.024078369140625,-0.00408935546875,-1.0012664794921875,98.06755065917969,-22.345870971679688,-41.86811828613281,2023-09-09 21:15:43.3580,1694312143.3584042,0.06324959546327591,-0.01059971284121275,0.007244911976158619,0.085418701171875,0.621307373046875,-0.779022216796875,
0,2023-09-09 21:15:39.2530,03:00,10,1,2023-09-09 21:15:43.8540,1694312143.854007,-0.0010490191634744406,-0.004162254277616739,-0.0006796387024223804,-0.022491455078125,-0.005096435546875,-1.0021514892578125,98.17823791503906,-22.083740234375,-41.9190673828125,2023-09-09 21:15:43.4580,1694312143.458197,0.0013063326478004456,-0.006781538017094135,0.005969923920929432,0.0808410570025444,0.6075896620750427,-0.786041259765625,
0,2023-09-09 21:15:39.2530,03:00,10,1,2023-09-09 21:15:43.9540,1694312143.954314,-0.0007965514669194818,-0.0072898706421256065,-0.0046269758604466915,-0.024688720703125,-0.0037078857421875,-1.0009307861328125,98.30506896972656,-22.457870483398438,-41.62890625,2023-09-09 21:15:43.5580,1694312143.5582929,-0.048009153455495834,-0.009328852407634258,0.004678357392549515,0.0835418552160263,0.5990905165672302,-0.7894439697265625,
0,2023-09-09 21:15:39.2530,03:00,10,1,2023-09-09 21:15:44.0550,1694312144.0548959,-0.003308711340650916,-0.006076002027839422,-0.0028154938481748104,-0.0233612060546875,-0.004730224609375,-1.0020904541015625,98.27082824707031,-22.658950805664062,-41.497589111328125,2023-09-09 21:15:43.6580,1694312143.6580482,0.06277069449424744,-0.00801125355064869,0.003826778382062912,0.0807189792394638,0.6097106337547302,-0.7848357558250427,
0,2023-09-09 21:15:39.2530,03:00,10,1,2023-09-09 21:15:44.1540,1694312144.154238,-0.0038048583082854748,-0.004778776317834854,-0.0014468954177573323,-0.022125244140625,-0.006622314453125,-1.0008544921875,98.15585327148438,-22.371841430664062,-41.56611633300781,2023-09-09 21:15:43.7580,1694312143.757749,0.06939797103404999,-0.005551290698349476,0.0042274510487914085,0.0801849216222763,0.6151123046875,-0.7866668701171875,
0,2023-09-09 21:15:39.2530,03:00,10,1,2023-09-09 21:15:44.2540,1694312144.253768,-0.00019707392493728548,-0.006277070846408606,-0.003486610483378172,-0.0221710205078125,-0.004791259765625,-1.0028533935546875,98.35774230957031,-22.482696533203125,-41.61683654785156,2023-09-09 21:15:43.8580,1694312143.8575969,-0.0030587213113904,0.00020260177552700043,0.005079030059278011,0.086029052734375,0.5988311767578125,-0.7893523573875427,
0,2023-09-09 21:15:39.2530,03:00,10,1,2023-09-09 21:15:44.3550,1694312144.354831,-0.0036400086246430874,-0.005121258553117514,-0.002508431440219283,-0.023712158203125,-0.0039520263671875,-1.0007781982421875,98.20355224609375,-22.596603393554688,-41.499481201171875,2023-09-09 21:15:43.9570,1694312143.957488,0.03908007591962814,-0.002057356759905815,0.007549045141786337,0.07754514366388321,0.6089934706687927,-0.7877044081687927,
0,2023-09-09 21:15:39.2530,03:00,10,1,2023-09-09 21:15:44.4540,1694312144.4542751,-0.0011659319279715419,-0.00384374032728374,-0.003227218519896269,-0.0224609375,-0.00433349609375,-1.001068115234375,98.37025451660156,-22.439376831054688,-41.249908447265625,2023-09-09 21:15:44.0570,1694312144.057296,-0.005960368551313877,0.002204233780503273,0.00014758796896785498,0.08279416710138321,0.6063842177391052,-0.7893828749656677,
0,2023-09-09 21:15:39.2530,03:00,10,1,2023-09-09 21:15:44.5550,1694312144.554807,-0.0025515747256577015,-0.005051483865827322,-0.003404052462428808,-0.0227508544921875,-0.0044708251953125,-1.001495361328125,98.22189331054688,-22.301528930664062,-41.57530212402344,2023-09-09 21:15:44.1570,1694312144.157105,-0.03321928530931473,0.0018657464534044266,0.008601060137152672,0.0828399509191513,0.5952301025390625,-0.79205322265625,
0,2023-09-09 21:15:39.2530,03:00,10,1,2023-09-09 21:15:44.6550,1694312144.6546988,-0.001434112200513482,-0.005053880624473095,-0.003692739177495241,-0.0233154296875,-0.004364013671875,-1.0016937255859375,98.25694274902344,-22.33331298828125,-41.191009521484375,2023-09-09 21:15:44.2570,1694312144.25708,0.0014062677510082722,-0.003969106823205948,0.003351470921188593,0.084381103515625,0.603851318359375,-0.789215087890625,
0,2023-09-09 21:15:39.2530,03:00,10,1,2023-09-09 21:15:44.7540,1694312144.754195,-0.0027262780349701643,-0.0010985539993271232,-0.003207244910299778,-0.02362060546875,-0.00433349609375,-0.99957275390625,98.25453186035156,-22.161529541015625,-41.43962097167969,2023-09-09 21:15:44.3570,1694312144.3567939,-0.011580636724829674,-0.0024673501029610634,0.0018019104609265924,0.0825042724609375,0.59356689453125,-0.790283203125,
0,2023-09-09 21:15:39.2530,03:00,10,1,2023-09-09 21:15:44.8550,1694312144.854714,7.669904152862728e-05,-0.002427471335977316,-0.0026256104465574026,-0.02392578125,-0.004150390625,-1.0011444091796875,98.19212341308594,-22.213668823242188,-41.4456787109375,2023-09-09 21:15:44.4570,1694312144.456722,0.030344974249601364,-0.005196823738515377,0.005171608179807663,0.0841674879193306,0.6131134033203125,-0.786376953125,
0,2023-09-09 21:15:39.2530,03:00,10,1,2023-09-09 21:15:44.9540,1694312144.954358,-0.0013440974289551377,-0.004009388852864504,-0.005646966863423586,-0.0218505859375,-0.0048675537109375,-1.0012664794921875,98.32391357421875,-22.362152099609375,-41.47450256347656,2023-09-09 21:15:44.5560,1694312144.556494,-0.03780798241496086,0.0012956960126757622,0.00648028589785099,0.0807342380285263,0.6016082763671875,-0.7899779677391052,
0,2023-09-09 21:15:39.2530,03:00,10,1,2023-09-09 21:15:45.0550,1694312145.054854,-0.002852511825039983,-0.007905327714979649,-0.001091629732400179,-0.0238800048828125,-0.0038604736328125,-1.000335693359375,98.2325439453125,-22.416122436523438,-41.67266845703125,2023-09-09 21:15:44.6570,1694312144.656635,0.008571969345211983,-0.007731753401458263,-0.008023389615118504,0.0821380466222763,0.5946196913719177,-0.7911681532859802,
0,2023-09-09 21:15:39.2530,03:00,10,1,2023-09-09 21:15:45.1550,1694312145.154753,-0.003489273600280285,-0.004053597338497639,-0.0024562333710491657,-0.0235137939453125,-0.0032501220703125,-1.00262451171875,98.22901916503906,-22.453384399414062,-41.37052917480469,2023-09-09 21:15:44.7560,1694312144.755944,0.038033321499824524,-0.00015772413462400436,0.010784054175019264,0.0848236158490181,0.6097412109375,-0.7901763916015625,
0,2023-09-09 21:15:39.2530,03:00,10,1,2023-09-09 21:15:45.2540,1694312145.253727,-0.0026615632232278585,-0.006460562348365784,5.805691034765914e-05,-0.0225830078125,-0.0040130615234375,-1.00067138671875,98.27912902832031,-22.183502197265625,-41.785797119140625,2023-09-09 21:15:44.8560,1694312144.8558931,0.005783106200397015,0.006335862446576357,-0.0008947732858359814,0.0812072679400444,0.6110382080078125,-0.789764404296875,
0,2023-09-09 21:15:39.2530,03:00,10,1,2023-09-09 21:15:45.3540,1694312145.354282,-0.0019169433508068323,-0.005238703917711973,-0.0017619474092498422,-0.02264404296875,-0.00433349609375,-1.0009613037109375,98.34135437011719,-22.366668701171875,-41.53118896484375,2023-09-09 21:15:44.9560,1694312144.955904,-0.035015854984521866,0.0005224472843110561,-0.0019117677584290504,0.08050537109375,0.596435546875,-0.7903746962547302,
0,2023-09-09 21:15:39.2530,03:00,10,1,2023-09-09 21:15:45.4540,1694312145.454224,0.00036511936923488975,-0.004265052266418934,-0.005135905928909779,-0.02105712890625,-0.0052337646484375,-1.0013275146484375,98.21337890625,-22.365310668945312,-41.65742492675781,2023-09-09 21:15:45.0560,1694312145.055956,0.022262880578637123,-0.007207111455500126,-0.003166249953210354,0.0840911716222763,0.6009368896484375,-0.78924560546875,
0,2023-09-09 21:15:39.2530,03:00,10,1,2023-09-09 21:15:45.5550,1694312145.55485,0.0005137237603776157,-0.0038256309926509857,-0.0028807413764297962,-0.0232391357421875,-0.0049896240234375,-1.0015106201171875,98.18603515625,-22.1536865234375,-41.590179443359375,2023-09-09 21:15:45.1560,1694312145.155626,0.021991636604070663,-0.003091461956501007,0.00590041559189558,0.0830688402056694,0.6101226806640625,-0.789642333984375,
0,2023-09-09 21:15:39.2530,03:00,10,1,2023-09-09 21:15:45.6630,1694312145.663455,-0.0019329222850501537,-0.0030245520174503326,-0.0030240193009376526,-0.0230865478515625,-0.0051727294921875,-1.001007080078125,98.17308044433594,-22.406845092773438,-41.55198669433594,2023-09-09 21:15:45.2550,1694312145.255416,-0.005189117044210434,-0.0013388358056545258,0.0004610420437529683,0.0822143629193306,0.6010283827781677,-0.7908629775047302,
0,2023-09-09 21:15:39.2530,03:00,10,1,2023-09-09 21:15:45.7540,1694312145.7542539,-0.0016815199051052332,-0.006465356331318617,-0.0031015174463391304,-0.0232391357421875,-0.005615234375,-1.0025634765625,98.13346862792969,-22.391494750976562,-41.62010192871094,2023-09-09 21:15:45.3550,1694312145.355253,-0.013118812814354897,-0.0027753449976444244,-0.0014694167766720057,0.0843505859375,0.6073302626609802,-0.7924957871437073,
0,2023-09-09 21:15:39.2530,03:00,10,1,2023-09-09 21:15:45.8550,1694312145.854611,-0.0010109359864145517,-0.004500742070376873,-0.0020671456586569548,-0.02288818359375,-0.004364013671875,-1.0008697509765625,98.35606384277344,-22.481536865234375,-41.23309326171875,2023-09-09 21:15:45.4550,1694312145.455075,-0.0074790362268686295,0.00043882429599761963,0.0021936281118541956,0.0783996656537056,0.5949859619140625,-0.79205322265625,
0,2023-09-09 21:15:39.2530,03:00,10,1,2023-09-09 21:15:45.9550,1694312145.954585,-0.004102333448827267,-0.004230963997542858,-0.002033855998888612,-0.0232086181640625,-0.0041046142578125,-1.00103759765625,98.17903137207031,-22.630477905273438,-41.173095703125,2023-09-09 21:15:45.5550,1694312145.554963,-0.01851590722799301,0.007059841882437468,0.0030548609793186188,0.0821838453412056,0.5976561903953552,-0.7889862060546875,
0,2023-09-09 21:15:39.2530,03:00,10,1,2023-09-09 21:15:46.0550,1694312146.05493,-0.0014916365034878254,-0.003878894029185176,-0.0017899106023833156,-0.0239410400390625,-0.0039825439453125,-0.999847412109375,98.34463500976562,-22.628890991210938,-41.117828369140625,2023-09-09 21:15:45.6550,1694312145.654783,0.0016032749554142356,0.007668241858482361,0.00692280288785696,0.0822906345129013,0.596771240234375,-0.79278564453125,
0,2023-09-09 21:15:39.2530,03:00,10,1,2023-09-09 21:15:46.1540,1694312146.1543288,-0.0005901564727537334,-0.005419532768428326,-0.003165699541568756,-0.020904541015625,-0.004547119140625,-1.0015716552734375,98.27362060546875,-22.439376831054688,-41.37611389160156,2023-09-09 21:15:45.7540,1694312145.754438,0.023563368245959282,-0.0060322582721710205,0.011111455969512463,0.08428952097892761,0.6087493300437927,-0.7867736220359802,
0,2023-09-09 21:15:39.2530,03:00,10,1,2023-09-09 21:15:46.2530,1694312146.253323,-0.001996571896597743,-0.002603506203740835,-0.002061286708340049,-0.021759033203125,-0.004241943359375,-0.9998321533203125,98.41633605957031,-22.639083862304688,-41.39659118652344,2023-09-09 21:15:45.8540,1694312145.85433,-0.00046693324111402035,-0.0021383166313171387,-0.001402172027155757,0.08226010948419571,0.6012877821922302,-0.7933043837547302,
0,2023-09-09 21:15:39.2530,03:00,10,1,2023-09-09 21:15:46.3550,1694312146.355278,-0.002855974016711116,-0.002915362361818552,-0.005230448208749294,-0.0230712890625,-0.004058837890625,-1.0009918212890625,98.46762084960938,-22.23016357421875,-41.29461669921875,2023-09-09 21:15:45.9540,1694312145.954293,0.01928686536848545,-0.005977395921945572,0.0006220635259523988,0.0830535814166069,0.59991455078125,-0.7917938232421875,
0,2023-09-09 21:15:39.2530,03:00,10,1,2023-09-09 21:15:46.4540,1694312146.454257,-0.0010301107540726662,-0.00355878216214478,-0.004510862287133932,-0.02374267578125,-0.0047149658203125,-0.99993896484375,98.19760131835938,-22.19427490234375,-41.319061279296875,2023-09-09 21:15:46.0560,1694312146.056138,0.009905746206641197,-0.002675609663128853,0.0019130974542349577,0.0821228101849556,0.6027374267578125,-0.7906951904296875,
0,2023-09-09 21:15:39.2530,03:00,10,1,2023-09-09 21:15:46.5550,1694312146.5545878,-0.0012397015234455466,-0.003963849041610956,-0.002805906580761075,-0.0224456787109375,-0.00408935546875,-1.000823974609375,98.15815734863281,-22.413986206054688,-41.44329833984375,2023-09-09 21:15:46.1540,1694312146.154118,-0.030374033376574516,-0.0008734483271837234,-0.002284044399857521,0.082977294921875,0.6012115478515625,-0.7951202392578125,
0,2023-09-09 21:15:39.2530,03:00,10,1,2023-09-09 21:15:46.6540,1694312146.65442,-0.0008072041091509163,-0.0038890140131115913,-0.004355333745479584,-0.0225067138671875,-0.00457763671875,-1.000640869140625,98.24563598632812,-22.454010009765625,-41.5133056640625,2023-09-09 21:15:46.2540,1694312146.253885,-0.00772304879501462,-0.0003687785938382149,3.636768087744713e-05,0.0783538892865181,0.587921142578125,-0.7943878173828125,
0,2023-09-09 21:15:39.2530,03:00,10,1,2023-09-09 21:15:46.7540,1694312146.7543879,-0.002525741932913661,-0.0018991001415997744,-0.0014895059866830707,-0.0234222412109375,-0.0048370361328125,-0.99908447265625,98.3192138671875,-22.423080444335938,-41.56817626953125,2023-09-09 21:15:46.3540,1694312146.353764,0.01823844574391842,-0.0015284530818462372,0.0032815958838909864,0.0859680101275444,0.6074828505516052,-0.7910918593406677,
0,2023-09-09 21:15:39.2530,03:00,10,1,2023-09-09 21:15:46.8630,1694312146.863402,0.001133174984715879,-0.0054701329208910465,-0.00207673292607069,-0.021697998046875,-0.004608154296875,-1.0020751953125,98.28921508789062,-22.402420043945312,-41.7425537109375,2023-09-09 21:15:46.4530,1694312146.453435,0.005276506766676903,0.008220181800425053,0.008789446204900742,0.0815277099609375,0.6043090224266052,-0.79156494140625,
0,2023-09-09 21:15:39.2530,03:00,10,1,2023-09-09 21:15:46.9650,1694312146.964905,0.00039601203752681613,-0.003921770956367254,-0.004572913981974125,-0.0226287841796875,-0.004608154296875,-1.000762939453125,98.25469970703125,-22.304977416992188,-41.78172302246094,2023-09-09 21:15:46.5530,1694312146.553224,-0.012905692681670189,0.0015329839661717415,-0.0027317884378135204,0.0854949876666069,0.6018524169921875,-0.7908172607421875,
0,2023-09-09 21:15:39.2530,03:00,10,1,2023-09-09 21:15:47.0550,1694312147.055047,-0.0013193299528211355,-0.002916161436587572,-0.001686579897068441,-0.0237884521484375,-0.00433349609375,-1.0001068115234375,98.29969787597656,-22.13214111328125,-41.65184020996094,2023-09-09 21:15:46.6540,1694312146.653801,-0.008005943149328232,-0.006707767955958843,-0.0037119982298463583,0.0818939059972763,0.5947418212890625,-0.7928618788719177,
0,2023-09-09 21:15:39.2530,03:00,10,1,2023-09-09 21:15:47.1540,1694312147.1542,-0.0031790153589099646,-0.0054914383217692375,-0.0031260184478014708,-0.02325439453125,-0.0044097900390625,-1.0012054443359375,98.28007507324219,-22.405349731445312,-41.71867370605469,2023-09-09 21:15:46.7530,1694312146.75312,0.011395451612770557,-0.000906071625649929,0.0041374028660357,0.0833282470703125,0.6001434326171875,-0.79193115234375,
0,2023-09-09 21:15:39.2530,03:00,10,1,2023-09-09 21:15:47.2660,1694312147.265849,-0.0033992587123066187,-0.006577741354703903,-0.0018306568963453174,-0.02215576171875,-0.003631591796875,-1.0004425048828125,98.34442138671875,-22.4324951171875,-41.33001708984375,2023-09-09 21:15:46.8530,1694312146.852855,0.005992563907057047,0.0013626748695969582,0.0039333379827439785,0.083282470703125,0.600555419921875,-0.792022705078125,
0,2023-09-09 21:15:39.2530,03:00,10,1,2023-09-09 21:15:47.3660,1694312147.3655019,-0.00010679275874281302,-0.006135390605777502,-0.002667954657226801,-0.0224456787109375,-0.004058837890625,-1.00115966796875,98.43740844726562,-22.4215087890625,-41.160797119140625,2023-09-09 21:15:46.9530,1694312146.9526849,0.005290621425956488,0.009785320609807968,0.00887266919016838,0.08131406456232071,0.6060790419578552,-0.79156494140625,
0,2023-09-09 21:15:39.2530,03:00,10,1,2023-09-09 21:15:47.4540,1694312147.454179,-0.0005544701125472784,-0.004562793765217066,0.00038509309524670243,-0.0234832763671875,-0.0048065185546875,-1.0010833740234375,98.44436645507812,-22.370010375976562,-41.08734130859375,2023-09-09 21:15:47.0530,1694312147.0526671,0.025229109451174736,-0.004500007256865501,0.0005705645307898521,0.0833892822265625,0.61224365234375,-0.788818359375,
0,2023-09-09 21:15:39.2530,03:00,10,1,2023-09-09 21:15:47.5550,1694312147.5549722,-0.002603239845484495,-0.004195543937385082,-0.0010612696642056108,-0.0243682861328125,-0.00531005859375,-1.001068115234375,98.420166015625,-22.241531372070312,-40.97764587402344,2023-09-09 21:15:47.1520,1694312147.1523619,-0.02225784957408905,0.011219566687941551,0.0071469079703092575,0.0808563157916069,0.5983428955078125,-0.7928162217140198,
0,2023-09-09 21:15:39.2530,03:00,10,1,2023-09-09 21:15:47.6540,1694312147.654439,-0.004551874939352274,-0.004829908721148968,-0.0028455876745283604,-0.0229034423828125,-0.00286865234375,-0.9997100830078125,98.38771057128906,-22.642486572265625,-40.93287658691406,2023-09-09 21:15:47.2520,1694312147.252137,-0.00980464182794094,-0.006525075063109398,-0.009247112087905407,0.0848846361041069,0.600372314453125,-0.791351318359375,
0,2023-09-09 21:15:39.2530,03:00,10,1,2023-09-09 21:15:47.7540,1694312147.753632,-0.0008889631717465818,-0.0021044297609478235,-0.0004825647920370102,-0.021331787109375,-0.0038299560546875,-0.999847412109375,98.43952941894531,-22.711395263671875,-40.921661376953125,2023-09-09 21:15:47.3520,1694312147.351931,-0.013304701074957848,0.008059459738433361,0.0028863162733614445,0.0844726487994194,0.595611572265625,-0.7923126220703125,
0,2023-09-09 21:15:39.2530,03:00,10,1,2023-09-09 21:15:47.8550,1694312147.8551512,0.0012767193838953972,-0.00538357999175787,-0.0029028456192463636,-0.0208282470703125,-0.0046844482421875,-1.001495361328125,98.32843017578125,-22.621383666992188,-41.110626220703125,2023-09-09 21:15:47.4520,1694312147.451797,0.012381687760353088,-0.0016071489080786705,0.0015466464683413506,0.0850677415728569,0.6019744277000427,-0.7915953993797302,
0,2023-09-09 21:15:39.2530,03:00,10,1,2023-09-09 21:15:47.9640,1694312147.963643,-0.00032197617110796273,-0.004059722647070885,-0.0030799456872045994,-0.02362060546875,-0.0036773681640625,-1.0001983642578125,98.40142822265625,-22.37860107421875,-41.33905029296875,2023-09-09 21:15:47.5520,1694312147.551568,-0.009816226549446583,-0.0010602688416838646,-0.0009757999796420336,0.0846862867474556,0.5999602675437927,-0.7901305556297302,
0,2023-09-09 21:15:39.2530,03:00,10,1,2023-09-09 21:15:48.0550,1694312148.054877,-0.0035510589368641376,-0.0043710460886359215,-0.0037465349305421114,-0.0211029052734375,-0.0042266845703125,-1.0008392333984375,98.40142822265625,-22.37860107421875,-41.33905029296875,2023-09-09 21:15:47.6520,1694312147.65168,0.00808907113969326,0.0015255273319780827,0.005996589083224535,0.0829925462603569,0.6035614013671875,-0.790313720703125,
0,2023-09-09 21:15:39.2530,03:00,10,1,2023-09-09 21:15:48.1550,1694312148.155171,-0.0020847225096076727,-0.005366003140807152,-0.0037920749746263027,-0.0245513916015625,-0.0038299560546875,-0.9982757568359375,98.36589050292969,-22.579254150390625,-41.664154052734375,2023-09-09 21:15:47.7520,1694312147.751626,0.02510986663401127,-0.00500188022851944,0.0031488705426454544,0.0852661058306694,0.6087799072265625,-0.788848876953125,
0,2023-09-09 21:15:39.2530,03:00,10,1,2023-09-09 21:15:48.2540,1694312148.254475,-0.0006817692192271352,-0.003907922655344009,-0.0015907060587778687,-0.022003173828125,-0.00286865234375,-1.003631591796875,98.37539672851562,-22.250320434570312,-41.31455993652344,2023-09-09 21:15:47.8510,1694312147.8513188,-0.010352853685617447,0.004668722860515118,0.005126434378325939,0.0859222337603569,0.601898193359375,-0.7893829345703125,
0,2023-09-09 21:15:39.2530,03:00,10,1,2023-09-09 21:15:48.3550,1694312148.354636,-0.0010607370641082525,-0.005055478774011135,-0.005665342323482037,-0.0219573974609375,-0.0041656494140625,-0.9983978271484375,98.34239196777344,-22.352447509765625,-41.31024169921875,2023-09-09 21:15:47.9510,1694312147.95093,0.004791411571204662,-0.006333993747830391,-0.004102051258087158,0.0862426683306694,0.590667724609375,-0.7922973036766052,
0,2023-09-09 21:15:39.2530,03:00,10,1,2023-09-09 21:15:48.4550,1694312148.454546,-0.003626160090789199,-0.000401604687795043,-0.002364886924624443,-0.023345947265625,-0.00506591796875,-1.0002593994140625,98.35694885253906,-22.482528686523438,-41.390838623046875,2023-09-09 21:15:48.0510,1694312148.050802,-0.006232810206711292,0.008732174523174763,0.012268966063857079,0.087188720703125,0.6055908203125,-0.7905120849609375,
0,2023-09-09 21:15:39.2530,03:00,10,1,2023-09-09 21:15:48.5550,1694312148.55463,1.997370782191865e-05,-0.007218231912702322,-0.0036967338528484106,-0.0243682861328125,-0.0063018798828125,-1.002410888671875,98.33699035644531,-22.442092895507812,-41.58843994140625,2023-09-09 21:15:48.1510,1694312148.150604,0.019373949617147446,-0.003752858377993107,0.003383761504665017,0.0833282321691513,0.6054076552391052,-0.7885589599609375,
0,2023-09-09 21:15:39.2530,03:00,10,1,2023-09-09 21:15:48.6550,1694312148.65541,-0.0018599516479298472,-0.0034261567052453756,-0.0024839304387569427,-0.024932861328125,-0.005859375,-1.003326416015625,98.26856994628906,-22.378005981445312,-41.54412841796875,2023-09-09 21:15:48.2500,1694312148.250463,-0.010985687375068665,-8.754897862672806e-05,-0.0029740696772933006,0.0881347507238388,0.602142333984375,-0.792999267578125,
0,2023-09-09 21:15:39.2530,03:00,10,1,2023-09-09 21:15:48.7550,1694312148.754758,-0.0013363742036744952,-0.0032266860362142324,-0.0019803266040980816,-0.02630615234375,-0.0054168701171875,-1.00152587890625,98.42007446289062,-22.423873901367188,-41.644989013671875,2023-09-09 21:15:48.3500,1694312148.350309,-0.0019042415078729391,-0.0006267065182328224,-0.0019664959982037544,0.0867767184972763,0.601318359375,-0.79058837890625,
0,2023-09-09 21:15:39.2530,03:00,10,1,2023-09-09 21:15:48.8550,1694312148.854823,-0.001856755930930376,-0.003992344718426466,-0.0034671693574637175,-0.020172119140625,-0.006256103515625,-1.001556396484375,98.45610046386719,-22.588836669921875,-41.660308837890625,2023-09-09 21:15:48.4500,1694312148.450141,0.01175850722938776,-0.002021270804107189,0.0019096351461485028,0.0865783616900444,0.603729248046875,-0.79022216796875,
0,2023-09-09 21:15:39.2530,03:00,10,1,2023-09-09 21:15:48.9550,1694312148.954887,0.0001227717293659225,-0.004229632206261158,-0.0006005428149364889,-0.021331787109375,-0.0066070556640625,-1.0041046142578125,98.27093505859375,-22.383071899414062,-41.53263854980469,2023-09-09 21:15:48.5500,1694312148.550137,-0.0002956253010779619,-0.004646348766982555,-0.00018340966198593378,0.08460996299982071,0.6002654433250427,-0.7913665175437927,
0,2023-09-09 21:15:39.2530,03:00,10,1,2023-09-09 21:15:49.0550,1694312149.055059,-0.0014090784825384617,-0.005258944351226091,-0.004202734678983688,-0.0252227783203125,-0.0034332275390625,-1.000518798828125,98.1888427734375,-21.9990234375,-41.3690185546875,2023-09-09 21:15:48.6500,1694312148.650245,-0.006703057326376438,-0.00073256716132164,2.678041346371174e-05,0.0854034349322319,0.5994262099266052,-0.7899322509765625,
0,2023-09-09 21:15:39.2530,03:00,10,1,2023-09-09 21:15:49.1550,1694312149.154984,-0.00395612558349967,-0.00478463526815176,-0.0006231797160580754,-0.025787353515625,-0.0052642822265625,-1.0007781982421875,98.21463012695312,-22.389541625976562,-41.31806945800781,2023-09-09 21:15:48.7500,1694312148.749732,0.0024576836731284857,-0.008071706630289555,-0.004503256641328335,0.0871887058019638,0.6074065566062927,-0.7923125624656677,
0,2023-09-09 21:15:39.2530,03:00,10,1,2023-09-09 21:15:49.2650,1694312149.265218,-0.0026407905388623476,-0.0024045680183917284,-0.004052532371133566,-0.024322509765625,-0.00628662109375,-1.00238037109375,98.51063537597656,-22.577606201171875,-41.30775451660156,2023-09-09 21:15:48.8490,1694312148.84941,0.0003019878640770912,-0.0108163608238101,-0.0031011688988655806,0.0819244459271431,0.5942535400390625,-0.7928924560546875,
0,2023-09-09 21:15:39.2530,03:00,10,1,2023-09-09 21:15:49.3550,1694312149.354984,-0.0014136058744043112,-0.005094893276691437,-0.001139300293289125,-0.0237579345703125,-0.0055999755859375,-1.0016326904296875,98.537353515625,-22.613815307617188,-41.05059814453125,2023-09-09 21:15:48.9490,1694312148.949366,0.03683742880821228,-0.0045562004670500755,0.0029136803932487965,0.0859222486615181,0.6121063232421875,-0.7894439697265625,
0,2023-09-09 21:15:39.2530,03:00,10,1,2023-09-09 21:15:49.4550,1694312149.4554172,0.0001930791768245399,-0.003765976056456566,-0.001654355670325458,-0.0232391357421875,-0.0052947998046875,-1.00238037109375,98.29324340820312,-22.416152954101562,-41.51324462890625,2023-09-09 21:15:49.0490,1694312149.049263,0.005215187557041645,-0.0007888926193118095,0.00030278367921710014,0.0798492357134819,0.605316162109375,-0.7914428114891052,
0,2023-09-09 21:15:39.2530,03:00,10,1,2023-09-09 21:15:49.5550,1694312149.5550609,-0.0025212145410478115,-0.005535646807402372,-0.002585396869108081,-0.0215911865234375,-0.0043487548828125,-1.001739501953125,98.27633666992188,-22.289443969726562,-41.17816162109375,2023-09-09 21:15:49.1490,1694312149.149088,-0.009197507053613663,-0.0034545836970210075,-0.0031694788485765457,0.08247373253107071,0.5953216552734375,-0.792816162109375,
0,2023-09-09 21:15:39.2530,03:00,10,1,2023-09-09 21:15:49.6550,1694312149.6548991,0.00032144354190677404,-0.004260258749127388,-0.003343332326039672,-0.024810791015625,-0.00604248046875,-1.0019989013671875,98.16539001464844,-22.158294677734375,-41.59837341308594,2023-09-09 21:15:49.2490,1694312149.2490501,-0.00320266536436975,-0.010604506358504295,-0.005554506089538336,0.08322141319513321,0.591583251953125,-0.7952423095703125,
0,2023-09-09 21:15:39.2530,03:00,10,1,2023-09-09 21:15:49.7550,1694312149.755027,-0.0010900318156927824,-0.003970240708440542,-0.0025800704024732113,-0.0230255126953125,-0.0058746337890625,-1.00213623046875,98.31193542480469,-22.268798828125,-41.86228942871094,2023-09-09 21:15:49.3490,1694312149.34868,0.014203023165464401,-0.005763011984527111,0.0012925808550789952,0.0825042575597763,0.5977630615234375,-0.7928314805030823,
0,2023-09-09 21:15:39.2530,03:00,10,1,2023-09-09 21:15:49.8550,1694312149.8546581,-0.002650377806276083,-0.0034969968255609274,-0.0030988543294370174,-0.0221710205078125,-0.0047454833984375,-1.00091552734375,98.35337829589844,-22.419937133789062,-41.5758056640625,2023-09-09 21:15:49.4490,1694312149.448504,0.02223997749388218,-0.008978646248579025,-0.00023224554024636745,0.0799560397863388,0.6042327880859375,-0.7946014404296875,
0,2023-09-09 21:15:39.2530,03:00,10,1,2023-09-09 21:15:49.9660,1694312149.966218,0.00045806370326317847,-0.004595017991960049,-0.0027920580469071865,-0.0236053466796875,-0.0043182373046875,-0.99871826171875,98.2520751953125,-22.298614501953125,-41.662841796875,2023-09-09 21:15:49.5490,1694312149.548598,-0.012488175183534622,0.004079632461071014,0.0011402146192267537,0.0782012939453125,0.5983580946922302,-0.7938842177391052,
0,2023-09-09 21:15:39.2530,03:00,10,1,2023-09-09 21:15:50.0680,1694312150.067595,-0.0013084110105410218,-0.006000102031975985,-0.004649613052606583,-0.0219573974609375,-0.004669189453125,-1.0009307861328125,98.34239196777344,-22.569305419921875,-41.77180480957031,2023-09-09 21:15:49.6540,1694312149.6539788,0.00815811287611723,-0.01267644576728344,-0.005558234639465809,0.0810699611902237,0.59429931640625,-0.7949675917625427,
0,2023-09-09 21:15:39.2530,03:00,10,1,2023-09-09 21:15:50.1550,1694312150.154793,0.0003014698449987918,-0.0023899206425994635,-0.0028487835079431534,-0.0227508544921875,-0.0047149658203125,-1.0008697509765625,98.28059387207031,-22.394515991210938,-41.60163879394531,2023-09-09 21:15:49.7480,1694312149.74809,0.02273818664252758,-0.0016225958243012428,0.007257395423948765,0.0781860277056694,0.5995941162109375,-0.7928619384765625,
0,2023-09-09 21:15:39.2530,03:00,10,1,2023-09-09 21:15:50.2640,1694312150.2639651,-0.0030477214604616165,-0.0014194648247212172,-0.0036578518338501453,-0.022186279296875,-0.00555419921875,-0.99969482421875,98.30307006835938,-22.272735595703125,-41.71916198730469,2023-09-09 21:15:49.8480,1694312149.847851,0.018514614552259445,0.0011259200982749462,0.0033766706474125385,0.0788269117474556,0.6076507568359375,-0.792266845703125,
0,2023-09-09 21:15:39.2530,03:00,10,1,2023-09-09 21:15:50.3550,1694312150.35477,-0.002936135046184063,-0.002784601179882884,-0.003008040366694331,-0.022705078125,-0.003936767578125,-1.000213623046875,98.32501220703125,-22.486129760742188,-41.2919921875,2023-09-09 21:15:49.9480,1694312149.947795,-0.0072607905603945255,0.0018468378111720085,-0.0007352500688284636,0.0806579664349556,0.59619140625,-0.7961882948875427,
0,2023-09-09 21:15:39.2530,03:00,10,1,2023-09-09 21:15:50.4550,1694312150.454812,-0.002490321872755885,-0.006714095361530781,-0.0015939018921926618,-0.023162841796875,-0.00323486328125,-1.001800537109375,98.26504516601562,-22.35833740234375,-41.787109375,2023-09-09 21:15:50.0470,1694312150.047379,-0.002688209293410182,-0.002723812125623226,-0.0057239830493927,0.0814209058880806,0.5950621962547302,-0.796600341796875,
0,2023-09-09 21:15:39.2530,03:00,10,1,2023-09-09 21:15:50.5550,1694312150.554531,0.0002532666258048266,-0.004073038697242737,-0.003709516953676939,-0.023162841796875,-0.00323486328125,-1.001800537109375,98.28538513183594,-22.32470703125,-41.49513244628906,2023-09-09 21:15:50.1470,1694312150.147262,-0.013730074279010296,0.0021021016873419285,6.952416151762009e-05,0.0792693942785263,0.5892943739891052,-0.79766845703125,
0,2023-09-09 21:15:39.2530,03:00,10,1,2023-09-09 21:15:50.6550,1694312150.654948,-0.0006791060441173613,-0.007355917245149612,-0.003967843484133482,-0.0223846435546875,-0.004241943359375,-1.0016632080078125,98.25076293945312,-22.472579956054688,-41.39723205566406,2023-09-09 21:15:50.2470,1694312150.2472072,0.00933349970728159,-0.001645897515118122,-0.0009040276054292917,0.0810546800494194,0.5939330458641052,-0.7963409423828125,
0,2023-09-09 21:15:39.2530,03:00,10,1,2023-09-09 21:15:50.7550,1694312150.754706,-0.0035358788445591927,-0.0015523566398769617,-0.0026381274219602346,-0.02294921875,-0.003997802734375,-0.999298095703125,98.29743957519531,-22.523727416992188,-41.217376708984375,2023-09-09 21:15:50.3480,1694312150.348026,0.03180758282542229,0.006157297175377607,0.01183323934674263,0.0787200927734375,0.599090576171875,-0.7922362685203552,
0,2023-09-09 21:15:39.2530,03:00,10,1,2023-09-09 21:15:50.8550,1694312150.8551412,-0.0022831279784440994,-0.002817358123138547,-0.0019329222850501537,-0.024505615234375,-0.0037384033203125,-0.99993896484375,98.3480224609375,-22.353179931640625,-41.454498291015625,2023-09-09 21:15:50.4470,1694312150.446907,0.03905650973320007,-0.009325921535491943,-0.002841210924088955,0.07931516319513321,0.6080169677734375,-0.7952423095703125,
0,2023-09-09 21:15:39.2530,03:00,10,1,2023-09-09 21:15:50.9550,1694312150.9545321,-0.00039175100391730666,-0.002889263443648815,-0.0028663603588938713,-0.0222320556640625,-0.0028839111328125,-1.0011444091796875,98.45953369140625,-22.597427368164062,-41.11138916015625,2023-09-09 21:15:50.5470,1694312150.546723,-0.01811050809919834,0.01055191271007061,0.003212353680282831,0.0794219970703125,0.6020964980125427,-0.7935638427734375,
0,2023-09-09 21:15:39.2530,03:00,10,1,2023-09-09 21:15:51.0550,1694312151.05493,-0.0016082830261439085,-0.005899434443563223,-0.004776911810040474,-0.02264404296875,-0.004058837890625,-1.0026092529296875,98.38822937011719,-22.411727905273438,-41.60826110839844,2023-09-09 21:15:50.6470,1694312150.646655,-0.0017830673605203629,0.0037097190506756306,0.0023743235506117344,0.0793914869427681,0.5995025038719177,-0.7920989990234375,
0,2023-09-09 21:15:39.2530,03:00,10,1,2023-09-09 21:15:51.1550,1694312151.154704,-0.0004135889175813645,-0.0035063179675489664,-0.003066629869863391,-0.0238494873046875,-0.0046539306640625,-1.0010223388671875,98.27903747558594,-22.549453735351562,-41.56123352050781,2023-09-09 21:15:50.7460,1694312150.746458,0.0034943190403282642,0.006902182474732399,0.003990296274423599,0.0813903659582138,0.5982666015625,-0.7948150634765625,
0,2023-09-09 21:15:39.2530,03:00,10,1,2023-09-09 21:15:51.2540,1694312151.253906,-0.0012564794160425663,-0.0011773834703490138,-0.0021201425697654486,-0.021575927734375,-0.004974365234375,-1.001708984375,98.22537231445312,-22.5379638671875,-41.64642333984375,2023-09-09 21:15:50.8460,1694312150.846157,-0.02043977566063404,-0.0017091473564505577,-0.003009156556800008,0.0831756442785263,0.5958556532859802,-0.7952880859375,
0,2023-09-09 21:15:39.2530,03:00,10,1,2023-09-09 21:15:51.3640,1694312151.364077,-0.0031036478467285633,-0.003471430391073227,-0.0026160231791436672,-0.02398681640625,-0.0037994384765625,-1.000244140625,98.29931640625,-22.363037109375,-41.641998291015625,2023-09-09 21:15:50.9460,1694312150.946204,-0.011038151569664478,0.0009020809084177017,-0.003702310612425208,0.0792388767004013,0.5859832763671875,-0.7969512343406677,
0,2023-09-09 21:15:39.2530,03:00,10,1,2023-09-09 21:15:51.4660,1694312151.466322,-0.0010921623324975371,-0.004571049474179745,-0.005404086317867041,-0.0232696533203125,-0.00421142578125,-1.0018768310546875,98.36396789550781,-22.60247802734375,-41.635589599609375,2023-09-09 21:15:51.0460,1694312151.045913,0.013933111913502216,-0.002038314938545227,0.00014988495968282223,0.0794219821691513,0.5947723388671875,-0.796295166015625,
0,2023-09-09 21:15:39.2530,03:00,10,1,2023-09-09 21:15:51.5540,1694312151.554488,-0.0011355718597769737,-0.005007275380194187,-0.0007576693315058947,-0.0232696533203125,-0.00421142578125,-1.0018768310546875,98.27357482910156,-22.548507690429688,-41.71214294433594,2023-09-09 21:15:51.1460,1694312151.1457958,-0.014282746240496635,-0.0010669268667697906,0.0020681265741586685,0.0817718431353569,0.5915985107421875,-0.7962493896484375,
0,2023-09-09 21:15:39.2530,03:00,10,1,2023-09-09 21:15:51.6660,1694312151.666387,0.0008226504432968795,-0.005616340320557356,-0.004261590540409088,-0.02410888671875,-0.004638671875,-1.0023193359375,98.30464172363281,-22.43536376953125,-41.839202880859375,2023-09-09 21:15:51.2460,1694312151.245625,-0.006520298775285482,-0.006400706246495247,-0.002180746989324689,0.0796050876379013,0.5872496962547302,-0.795623779296875,
0,2023-09-09 21:15:39.2530,03:00,10,1,2023-09-09 21:15:51.7680,1694312151.7676969,-0.0008665926288813353,-0.005571066867560148,-0.004697549622505903,-0.0243682861328125,-0.0051727294921875,-1.0006256103515625,98.25662231445312,-22.551605224609375,-41.507904052734375,2023-09-09 21:15:51.3460,1694312151.345541,-0.017485864460468292,0.00923018530011177,0.002732918132096529,0.0834350660443306,0.5947418212890625,-0.7971649765968323,
0,2023-09-09 21:15:39.2530,03:00,10,1,2023-09-09 21:15:51.8540,1694312151.854456,-0.0008450209861621261,-0.006361759267747402,-0.0017153420485556126,-0.0243682861328125,-0.0051727294921875,-1.0006256103515625,98.35369873046875,-22.540359497070312,-41.807861328125,2023-09-09 21:15:51.4450,1694312151.445243,-0.006693736650049686,0.007575696799904108,0.000529718236066401,0.0816192626953125,0.596160888671875,-0.796600341796875,
0,2023-09-09 21:15:39.2530,03:00,10,1,2023-09-09 21:15:51.9550,1694312151.954885,0.00019041601626668125,-0.003239735495299101,-0.0012857741676270962,-0.0222015380859375,-0.0053253173828125,-1.002838134765625,98.27154541015625,-22.466201782226562,-41.664825439453125,2023-09-09 21:15:51.5450,1694312151.545078,-0.021997924894094467,0.00736064650118351,-0.0016714842058718204,0.0852661058306694,0.59173583984375,-0.796875,
0,2023-09-09 21:15:39.2530,03:00,10,1,2023-09-09 21:15:52.0550,1694312152.054762,-0.00037763622822239995,-0.004765726625919342,-0.0009725864510983229,-0.0239410400390625,-0.0047607421875,-1.00140380859375,98.29208374023438,-22.473403930664062,-41.59234619140625,2023-09-09 21:15:51.6450,1694312151.6449351,0.047861382365226746,-0.008281562477350235,0.001821617828682065,0.0852203294634819,0.5987548232078552,-0.7934417724609375,
0,2023-09-09 21:15:39.2530,03:00,10,1,2023-09-09 21:15:52.1640,1694312152.164153,-0.001213602488860488,-0.0051630702801048756,-0.0030980552546679974,-0.0222930908203125,-0.0037384033203125,-1.0007171630859375,98.33203125,-22.369888305664062,-41.24787902832031,2023-09-09 21:15:51.7450,1694312151.744966,0.08213113993406296,0.024787575006484985,0.02593737468123436,0.076507568359375,0.6005706191062927,-0.7849273681640625,
0,2023-09-09 21:15:39.2530,03:00,10,1,2023-09-09 21:15:52.2550,1694312152.255378,0.0005067995516583323,-0.004889297299087048,-0.0046325684525072575,-0.0222930908203125,-0.0037384033203125,-1.0007171630859375,98.33856201171875,-22.339187622070312,-41.4217529296875,2023-09-09 21:15:51.8450,1694312151.844727,0.40791836380958557,0.0052765896543860435,0.09784295409917831,0.08164975047111511,0.6200408339500427,-0.7984923720359802,
0,2023-09-09 21:15:39.2530,03:00,10,1,2023-09-09 21:15:52.3550,1694312152.354972,-0.002147306688129902,-0.004174504894763231,-0.003212571144104004,-0.019439697265625,-0.00439453125,-0.9996185302734375,98.28884887695312,-22.280044555664062,-41.378875732421875,2023-09-09 21:15:51.9440,1694312151.9444551,0.35452866554260254,-0.35715484619140625,-0.008788548409938812,0.093780517578125,0.586181640625,-0.8020172715187073,
0,2023-09-09 21:15:39.2530,03:00,10,1,2023-09-09 21:15:52.4550,1694312152.454722,0.00043542683124542236,-0.005323659162968397,-0.0020956413354724646,-0.0213165283203125,-0.0047760009765625,-1.0020294189453125,98.28074645996094,-22.427536010742188,-41.564910888671875,2023-09-09 21:15:52.0440,1694312152.044434,0.5418757796287537,-0.07710083574056625,0.18380559980869293,0.0669402927160263,0.5587615966796875,-0.8967131972312927,
0,2023-09-09 21:15:39.2530,03:00,10,1,2023-09-09 21:15:52.5540,1694312152.554411,-0.002368881832808256,-0.00569916469976306,-0.003614175831899047,-0.024566650390625,-0.0031585693359375,-0.9987640380859375,98.27291870117188,-22.35693359375,-41.289520263671875,2023-09-09 21:15:52.1440,1694312152.144023,0.6110789775848389,-0.08979067206382751,0.1647561639547348,0.0766754150390625,0.4219512939453125,-0.8598785400390625,
0,2023-09-09 21:15:39.2530,03:00,10,1,2023-09-09 21:15:52.6550,1694312152.654859,0.0010980212828144431,-0.0007909588166512549,-0.002442651428282261,-0.0229034423828125,-0.0028533935546875,-1.000701904296875,98.10397338867188,-22.251129150390625,-41.4815673828125,2023-09-09 21:15:52.2440,1694312152.243987,0.19308336079120636,-0.10658109933137894,0.08710891753435135,0.0630950927734375,0.4646454155445099,-0.8753662109375,
0,2023-09-09 21:15:39.2530,03:00,10,1,2023-09-09 21:15:52.7550,1694312152.75462,-0.0049276468344032764,-0.002957440447062254,-0.003180346917361021,-0.0228424072265625,-0.0041961669921875,-1.0005645751953125,98.29623413085938,-22.240966796875,-41.40016174316406,2023-09-09 21:15:52.3440,1694312152.343851,0.1477491706609726,-0.11140061914920807,-0.03270057588815689,0.051849365234375,0.4496459662914276,-0.8834228515625,
0,2023-09-09 21:15:39.2530,03:00,10,1,2023-09-09 21:15:52.8650,1694312152.864668,-0.002320145955309272,-0.0046296389773488045,-0.0038690404035151005,-0.022857666015625,-0.0041961669921875,-0.9998321533203125,98.33793640136719,-22.334213256835938,-41.414337158203125,2023-09-09 21:15:52.4440,1694312152.443646,0.1411433219909668,-0.15157441794872284,-0.0803011804819107,0.0471496656537056,0.391357421875,-0.870208740234375,
0,2023-09-09 21:15:39.2530,03:00,10,1,2023-09-09 21:15:52.9550,1694312152.954629,-0.0025041704066097736,-0.0025097629986703396,-0.0006817692192271352,-0.0230255126953125,-0.00408935546875,-1.0013580322265625,98.08822631835938,-22.042007446289062,-41.49327087402344,2023-09-09 21:15:52.5430,1694312152.543417,0.48201122879981995,-0.3833521008491516,-0.10144684463739395,0.0808868445456028,0.3944091498851776,-0.9065704345703125,
0,2023-09-09 21:15:39.2530,03:00,10,1,2023-09-09 21:15:53.0540,1694312153.054353,0.0007129282457754016,-0.004522580187767744,-0.004561728797852993,-0.0222930908203125,-0.00439453125,-0.9997711181640625,98.20022583007812,-22.240158081054688,-41.62287902832031,2023-09-09 21:15:52.6430,1694312152.6432328,-0.13117775321006775,-0.774695098400116,-0.2167830914258957,-0.11479186918586493,0.4566650390625,-0.868316650390625,
0,2023-09-09 21:15:39.2530,03:00,10,1,2023-09-09 21:15:53.1540,1694312153.1543021,0.001100950757972896,-0.005151086021214724,-0.0017121462151408195,-0.023223876953125,-0.0047454833984375,-1.0022735595703125,98.38063049316406,-22.381820678710938,-41.76631164550781,2023-09-09 21:15:52.7430,1694312152.743329,0.3618183135986328,-0.9487147331237793,-0.2064104527235031,-0.1590423509478569,0.3554687798023224,-0.9349822998046875,
0,2023-09-09 21:15:39.2530,03:00,10,1,2023-09-09 21:15:53.2550,1694312153.2546701,-0.002124403603374958,-0.004334827419370413,-0.0033478597179055214,-0.0245513916015625,-0.0040740966796875,-1.0012969970703125,98.16146850585938,-22.425125122070312,-41.63484191894531,2023-09-09 21:15:52.8430,1694312152.843051,-0.301889032125473,-1.193945050239563,-0.47996973991394043,-0.17962646484375,0.4060211181640625,-0.8757476210594177,
0,2023-09-09 21:15:39.2530,03:00,10,1,2023-09-09 21:15:53.3550,1694312153.355054,-0.001532116555608809,-0.005651227664202452,-0.001826395862735808,-0.022735595703125,-0.0040283203125,-1.0004119873046875,98.32534790039062,-22.613250732421875,-41.40556335449219,2023-09-09 21:15:52.9430,1694312152.942882,-0.971950352191925,-1.2153044939041138,-0.7429578900337219,-0.5752105414867401,0.4391326606273651,-0.8326110243797302,
0,2023-09-09 21:15:39.2530,03:00,10,1,2023-09-09 21:15:53.4550,1694312153.4546142,-0.000854075769893825,-0.0027656927704811096,-0.0029353362042456865,-0.022003173828125,-0.0047607421875,-1.001007080078125,98.18550109863281,-22.498214721679688,-41.512664794921875,2023-09-09 21:15:53.0430,1694312153.042974,-1.6651266813278198,-1.3119542598724365,-1.0290542840957642,-0.5557860732078552,0.4959563910961151,-0.8163146376609802,
0,2023-09-09 21:15:39.2530,03:00,10,1,2023-09-09 21:15:53.5540,1694312153.554143,-0.0006900250446051359,-0.003198456484824419,-0.002517752582207322,-0.0241546630859375,-0.0035552978515625,-1.0000457763671875,98.25729370117188,-22.412033081054688,-41.48077392578125,2023-09-09 21:15:53.1430,1694312153.142617,-1.5773121118545532,-1.0761401653289795,-1.2720891237258911,-0.59112548828125,0.62811279296875,-0.700958251953125,
0,2023-09-09 21:15:39.2530,03:00,10,1,2023-09-09 21:15:53.6540,1694312153.65441,0.0013430321123450994,-0.00723367789760232,-0.0026027073618024588,-0.0234832763671875,-0.00390625,-1.0010528564453125,98.226806640625,-22.4669189453125,-41.36943054199219,2023-09-09 21:15:53.2420,1694312153.242357,-0.02150377631187439,-0.544077455997467,-0.5349164009094238,-0.043609559535980225,0.6672820448875427,-0.7569427490234375,
0,2023-09-09 21:15:39.2530,03:00,10,1,2023-09-09 21:15:53.7540,1694312153.7544742,-0.0023374564480036497,-0.003556119045242667,-0.0024000408593565226,-0.021942138671875,-0.0037384033203125,-1.0005950927734375,98.25178527832031,-22.195663452148438,-41.262451171875,2023-09-09 21:15:53.3430,1694312153.342822,-0.24243049323558807,-0.506305456161499,-0.11916692554950714,-0.7362672090530396,0.4148560166358948,-0.3582764267921448,
0,2023-09-09 21:15:39.2530,03:00,10,1,2023-09-09 21:15:53.8550,1694312153.8545098,-0.00021598236344289035,-0.004133225884288549,-0.0006479470757767558,-0.0234527587890625,-0.0044097900390625,-1.0027923583984375,98.34144592285156,-22.39630126953125,-41.36968994140625,2023-09-09 21:15:53.4420,1694312153.44207,0.1906767189502716,-0.29352661967277527,-0.4437066614627838,-0.7802581191062927,0.4347839653491974,-0.3942261040210724,
0,2023-09-09 21:15:39.2530,03:00,10,1,2023-09-09 21:15:53.9550,1694312153.954767,-0.001377386855892837,-0.003638410707935691,-0.0037140443455427885,-0.0246124267578125,-0.003021240234375,-1.0010986328125,98.32652282714844,-22.419570922851562,-41.18333435058594,2023-09-09 21:15:53.5420,1694312153.541992,0.21117888391017914,-0.2723618149757385,-0.47233474254608154,-0.8960875868797302,0.3276977241039276,-0.3197631537914276,
0,2023-09-09 21:15:39.2530,03:00,10,1,2023-09-09 21:15:54.0540,1694312154.054308,-0.0010743191232904792,-0.0033310819417238235,-0.004387824330478907,-0.0226593017578125,-0.0042877197265625,-1.0011138916015625,98.27157592773438,-22.316482543945312,-41.318359375,2023-09-09 21:15:53.6420,1694312153.641704,0.13254377245903015,-0.04819542169570923,-0.43658795952796936,-0.8541260957717896,0.3807373344898224,-0.3801270127296448,
0,2023-09-09 21:15:39.2530,03:00,10,1,2023-09-09 21:15:54.1640,1694312154.1639671,0.0025925873778760433,-0.0029435919132083654,-0.002273540711030364,-0.02264404296875,-0.0041046142578125,-1.0015716552734375,98.34719848632812,-22.557098388671875,-41.663482666015625,2023-09-09 21:15:53.7410,1694312153.741476,-0.44353270530700684,0.0576481819152832,-0.3320120871067047,-0.8517608642578125,0.4807891845703125,-0.4230499267578125,
0,2023-09-09 21:15:39.2530,03:00,10,1,2023-09-09 21:15:54.2680,1694312154.268136,0.0014642059104517102,-0.0054512242786586285,-0.005595567636191845,-0.0235443115234375,-0.0051727294921875,-0.99945068359375,98.33522033691406,-22.66864013671875,-41.36155700683594,2023-09-09 21:15:53.8410,1694312153.841398,-0.08063501119613647,-0.29722005128860474,-0.5285420417785645,-0.8605804443359375,0.2763366997241974,-0.3773956596851349,
0,2023-09-09 21:15:39.2530,03:00,10,1,2023-09-09 21:15:54.3660,1694312154.366064,-0.00028815402765758336,-0.004165183752775192,-0.0030546458438038826,-0.0227508544921875,-0.004669189453125,-1.00250244140625,98.37466430664062,-22.733322143554688,-41.26280212402344,2023-09-09 21:15:53.9410,1694312153.941226,0.42550936341285706,-0.2934722900390625,-0.6753690242767334,-0.9500885605812073,0.06188969314098358,-0.3221130669116974,
0,2023-09-09 21:15:39.2530,03:00,10,1,2023-09-09 21:15:54.4540,1694312154.454371,-0.0013510215794667602,-0.0027422569692134857,-0.0034077810123562813,-0.0223388671875,-0.004791259765625,-1.001678466796875,98.22038269042969,-22.573944091796875,-41.731353759765625,2023-09-09 21:15:54.0410,1694312154.0414948,0.1782436966896057,-0.24298422038555145,-0.49491187930107117,-0.942138671875,0.274078369140625,-0.2605896294116974,
0,2023-09-09 21:15:39.2530,03:00,10,1,2023-09-09 21:15:54.5540,1694312154.554442,-0.0013885721564292908,-0.006131129339337349,-0.003869839245453477,-0.022735595703125,-0.0044403076171875,-1.00238037109375,98.23847961425781,-22.47027587890625,-41.58262634277344,2023-09-09 21:15:54.1410,1694312154.140975,0.13683266937732697,-0.07391809672117233,-0.5448705554008484,-0.9297028183937073,0.1648407131433487,-0.35723876953125,
0,2023-09-09 21:15:39.2530,03:00,10,1,2023-09-09 21:15:54.6540,1694312154.653561,-0.0006636597099713981,-0.004298341926187277,-0.004503405187278986,-0.02508544921875,-0.00360107421875,-1.000274658203125,98.33926391601562,-22.546356201171875,-41.83192443847656,2023-09-09 21:15:54.2410,1694312154.240862,-0.037972696125507355,0.09153824299573898,-0.5362668037414551,-0.912277102470398,-0.009216316044330597,-0.2698974311351776,
0,2023-09-09 21:15:39.2530,03:00,10,1,2023-09-09 21:15:54.7550,1694312154.754822,0.002695385366678238,-0.0019494339358061552,-0.004883438348770142,-0.0235748291015625,-0.004638671875,-1.00091552734375,98.26882934570312,-22.467758178710938,-41.43641662597656,2023-09-09 21:15:54.3410,1694312154.340538,0.020019100978970528,0.2617619037628174,-0.6533972024917603,-0.9089507460594177,-0.009613042697310448,-0.2983398139476776,
0,2023-09-09 21:15:39.2530,03:00,10,1,2023-09-09 21:15:54.8540,1694312154.85428,-0.002695651724934578,-0.004512459971010685,-0.0016381103778257966,-0.0224609375,-0.0044097900390625,-1.0029144287109375,98.27229309082031,-22.721572875976562,-41.69801330566406,2023-09-09 21:15:54.4400,1694312154.440384,0.30427706241607666,-0.06547801196575165,-0.40942057967185974,-0.8091124892234802,-0.0915374755859375,-0.5535888373851776,
0,2023-09-09 21:15:39.2530,03:00,10,1,2023-09-09 21:15:54.9540,1694312154.954232,-0.002311091171577573,-0.004403536673635244,-0.0007427555974572897,-0.0238037109375,-0.0038604736328125,-1.000732421875,98.25244140625,-22.767608642578125,-41.40531921386719,2023-09-09 21:15:54.5400,1694312154.5401459,-0.14961421489715576,0.36951035261154175,-0.3880597949028015,-1.0963591933250427,-0.0726928561925888,-0.2715912163257599,
0,2023-09-09 21:15:39.2530,03:00,10,1,2023-09-09 21:15:55.0540,1694312155.054208,-0.0018072210950776935,-0.0041731735691428185,-0.00430180411785841,-0.022796630859375,-0.0037841796875,-1.0018310546875,98.23646545410156,-22.4990234375,-41.5897216796875,2023-09-09 21:15:54.6400,1694312154.640132,-0.04195744916796684,0.18583491444587708,-0.29752448201179504,-0.9488677382469177,-0.2305297702550888,-0.3664856255054474,
0,2023-09-09 21:15:39.2530,03:00,10,1,2023-09-09 21:15:55.1540,1694312155.153699,-0.0004673847579397261,-0.002743588527664542,-0.0018362496048212051,-0.0225067138671875,-0.0036773681640625,-1.0001220703125,98.22911071777344,-22.605926513671875,-41.60002136230469,2023-09-09 21:15:54.7400,1694312154.7400188,0.17024794220924377,0.09155541658401489,-0.3459456264972687,-0.8904723525047302,-0.1383666694164276,-0.4567413330078125,
0,2023-09-09 21:15:39.2530,03:00,10,1,2023-09-09 21:15:55.2550,1694312155.254734,1.1717908819264267e-05,-0.003979295492172241,-0.0029936593491584063,-0.0221710205078125,-0.005462646484375,-1.0025177001953125,98.38865661621094,-22.84661865234375,-41.535491943359375,2023-09-09 21:15:54.8400,1694312154.83981,0.018751902505755424,-0.03173642233014107,-0.10270155966281891,-0.9044646620750427,-0.10719296336174011,-0.3699188530445099,
0,2023-09-09 21:15:39.2530,03:00,10,1,2023-09-09 21:15:55.3550,1694312155.354722,0.0005123922019265592,-0.006375873927026987,-0.0032948628067970276,-0.022430419921875,-0.0046844482421875,-1.0013885498046875,98.16624450683594,-22.563323974609375,-41.105499267578125,2023-09-09 21:15:54.9400,1694312154.939732,0.02810252644121647,0.012438762001693249,-0.07407671213150024,-0.8703460693359375,-0.1882781833410263,-0.3989105224609375,
0,2023-09-09 21:15:39.2530,03:00,10,1,2023-09-09 21:15:55.4550,1694312155.454636,-0.004734035115689039,-0.0054634748958051205,-0.0036677054595202208,-0.023681640625,-0.0042877197265625,-1.001708984375,98.24774169921875,-22.569229125976562,-41.36663818359375,2023-09-09 21:15:55.0390,1694312155.0393162,0.09365969896316528,-0.02915075793862343,-0.07561641186475754,-0.8202513456344604,-0.20230098068714142,-0.4108428955078125,
0,2023-09-09 21:15:39.2530,03:00,10,1,2023-09-09 21:15:55.5540,1694312155.554327,0.00027563716867007315,-0.005630454979836941,-0.002154231071472168,-0.0216522216796875,-0.004180908203125,-1.00164794921875,98.34776306152344,-22.774673461914062,-41.53694152832031,2023-09-09 21:15:55.1390,1694312155.1392379,-0.040850043296813965,-0.003015561029314995,-0.0948554202914238,-0.8533172011375427,-0.1701354831457138,-0.3914642035961151,
0,2023-09-09 21:15:39.2530,03:00,10,1,2023-09-09 21:15:55.6640,1694312155.664435,-0.0012570120161399245,-0.0027324033435434103,-0.002293514320626855,-0.023193359375,-0.0040740966796875,-1.0023651123046875,98.38957214355469,-22.804672241210938,-41.184906005859375,2023-09-09 21:15:55.2390,1694312155.239075,-0.03785198926925659,-0.028125707060098648,0.05609780550003052,-0.8079985976219177,-0.2227935492992401,-0.362091064453125,
0,2023-09-09 21:15:39.2530,03:00,10,1,2023-09-09 21:15:55.7660,1694312155.765948,0.000303334032651037,-0.003028546692803502,-0.001585646066814661,-0.0240478515625,-0.0038604736328125,-1.0000457763671875,98.32743835449219,-22.569122314453125,-41.583526611328125,2023-09-09 21:15:55.3390,1694312155.339013,0.018178656697273254,-0.03043706715106964,0.06861180067062378,-0.913986325263977,-0.151153564453125,-0.3982391953468323,
0,2023-09-09 21:15:39.2530,03:00,10,1,2023-09-09 21:15:55.8640,1694312155.863943,-0.000294545607175678,-0.0035782232880592346,-0.0035806200467050076,-0.0225372314453125,-0.0039520263671875,-1.00152587890625,98.25071716308594,-22.64654541015625,-41.65351867675781,2023-09-09 21:15:55.4390,1694312155.438901,0.051450327038764954,-0.03838127478957176,0.07663470506668091,-0.881988525390625,-0.1828918308019638,-0.3693847358226776,
0,2023-09-09 21:15:39.2530,03:00,10,1,2023-09-09 21:15:55.9670,1694312155.966959,-0.0015877765836194158,-0.002216282533481717,-0.002417883835732937,-0.021759033203125,-0.0058441162109375,-1.0013427734375,98.21940612792969,-22.70404052734375,-41.537261962890625,2023-09-09 21:15:55.5390,1694312155.538638,-0.013036787509918213,-0.012229301035404205,0.05244708061218262,-0.9018706679344177,-0.1785735934972763,-0.3903350532054901,
0,2023-09-09 21:15:39.2530,03:00,10,1,2023-09-09 21:15:56.0540,1694312156.053921,-0.0033992587123066187,-0.0025984463281929493,-0.003058640519157052,-0.0224761962890625,-0.0045013427734375,-1.0008544921875,98.21026611328125,-22.554428100585938,-41.92265319824219,2023-09-09 21:15:55.6390,1694312155.638589,0.10403990000486374,-0.07798328250646591,-0.01492523867636919,-0.8956450819969177,-0.1407623142004013,-0.4210509955883026,
0,2023-09-09 21:15:39.2530,03:00,10,1,2023-09-09 21:15:56.1630,1694312156.163419,-0.0017925737192854285,-0.00401604687795043,-0.0036943370942026377,-0.0242156982421875,-0.0045013427734375,-1.0025482177734375,98.24002075195312,-22.817764282226562,-41.892852783203125,2023-09-09 21:15:55.7380,1694312155.7381148,0.009248411282896996,0.03558456152677536,0.04625502973794937,-0.9045714735984802,-0.1599883884191513,-0.39434814453125,
0,2023-09-09 21:15:39.2530,03:00,10,1,2023-09-09 21:15:56.2660,1694312156.26611,-0.0005755090969614685,-0.002779274946078658,-0.0028700886759907007,-0.0222015380859375,-0.0046539306640625,-1.0006103515625,98.33364868164062,-22.649093627929688,-41.98588562011719,2023-09-09 21:15:55.8380,1694312155.8380399,-0.06266878545284271,0.04868624731898308,0.046277597546577454,-0.9443358778953552,-0.2033233344554901,-0.374481201171875,
0,2023-09-09 21:15:39.2530,03:00,10,1,2023-09-09 21:15:56.3540,1694312156.353897,0.00037950044497847557,-0.0009142631897702813,-0.002907373011112213,-0.022796630859375,-0.005096435546875,-1.0011138916015625,98.21028137207031,-22.622772216796875,-42.04487609863281,2023-09-09 21:15:55.9380,1694312155.938107,0.05665481090545654,0.04188640043139458,0.011659900657832623,-0.9150542616844177,-0.1537017524242401,-0.405303955078125,
0,2023-09-09 21:15:39.2530,03:00,10,1,2023-09-09 21:15:56.4660,1694312156.466068,-0.0023371900897473097,-0.003623496973887086,-0.0010655306978151202,-0.0235595703125,-0.00469970703125,-1.0014801025390625,98.213623046875,-22.739578247070312,-41.885894775390625,2023-09-09 21:15:56.0380,1694312156.037938,0.042149368673563004,-0.019311977550387383,0.0278864074498415,-0.908294677734375,-0.1583709716796875,-0.406646728515625,
0,2023-09-09 21:15:39.2530,03:00,10,1,2023-09-09 21:15:56.5660,1694312156.5658,-0.0017204020405188203,-0.00390259618870914,-0.0022658174857497215,-0.0245208740234375,-0.0049285888671875,-1.002105712890625,98.38442993164062,-22.856338500976562,-41.921722412109375,2023-09-09 21:15:56.1380,1694312156.1377568,0.010249294340610504,0.06155451014637947,-0.009876316413283348,-0.8949127793312073,-0.1654815971851349,-0.40661630034446716,
0,2023-09-09 21:15:39.2530,03:00,10,1,2023-09-09 21:15:56.6660,1694312156.665862,-0.0007582019316032529,-0.005167065188288689,-0.0014982944121584296,-0.0213165283203125,-0.0046844482421875,-1.002838134765625,98.29220581054688,-22.45806884765625,-41.779022216796875,2023-09-09 21:15:56.2380,1694312156.237527,-0.01575208082795143,0.06588906794786453,-0.011940066702663898,-0.9027252197265625,-0.1776580661535263,-0.39892578125,
0,2023-09-09 21:15:39.2530,03:00,10,1,2023-09-09 21:15:56.7540,1694312156.754278,-0.0012841762509196997,-0.004304999951273203,-0.000604004948399961,-0.0244598388671875,-0.0034637451171875,-0.999603271484375,98.44071960449219,-22.707168579101562,-41.566009521484375,2023-09-09 21:15:56.3380,1694312156.337517,-0.0075038038194179535,0.021306555718183517,-0.002154914429411292,-0.8897093534469604,-0.1719665378332138,-0.4126128852367401,
0,2023-09-09 21:15:39.2530,03:00,10,1,2023-09-09 21:15:56.8540,1694312156.8540568,-0.001493234420195222,-0.0027305390685796738,-0.003026682650670409,-0.0243377685546875,-0.0040740966796875,-1.00091552734375,98.28318786621094,-22.80078125,-41.69732666015625,2023-09-09 21:15:56.4370,1694312156.437177,-0.002116495044901967,0.00045240670442581177,-0.024428661912679672,-0.8913116455078125,-0.1742248386144638,-0.4037475287914276,
0,2023-09-09 21:15:39.2530,03:00,10,1,2023-09-09 21:15:56.9660,1694312156.966199,0.00041998049709945917,-0.005953230429440737,-0.0007936219917610288,-0.022491455078125,-0.004180908203125,-1.000885009765625,98.26239013671875,-22.690658569335938,-41.67774963378906,2023-09-09 21:15:56.5370,1694312156.537037,0.00042489287443459034,0.008846556767821312,0.012531386688351631,-0.915679931640625,-0.1651458740234375,-0.395233154296875,
0,2023-09-09 21:15:39.2530,03:00,10,1,2023-09-09 21:15:57.0540,1694312157.053853,-0.0024535702541470528,-0.004649080336093903,-0.0005342300864867866,-0.02166748046875,-0.0053863525390625,-1.0007781982421875,98.49087524414062,-22.967117309570312,-41.38563537597656,2023-09-09 21:15:56.6370,1694312156.636846,-0.0012777324300259352,0.002398644108325243,-0.026703201234340668,-0.9041748046875,-0.1749877631664276,-0.4030303955078125,
0,2023-09-09 21:15:39.2530,03:00,10,1,2023-09-09 21:15:57.1630,1694312157.163261,-0.0015108112711459398,-0.003947603516280651,-0.003457582090049982,-0.0241546630859375,-0.00396728515625,-1.0007476806640625,98.51145935058594,-22.660202026367188,-41.22898864746094,2023-09-09 21:15:56.7370,1694312156.736644,-0.028970878571271896,0.04109250754117966,-0.02082693576812744,-0.8774260878562927,-0.16633601486682892,-0.4068298637866974,
0,2023-09-09 21:15:39.2530,03:00,10,1,2023-09-09 21:15:57.2660,1694312157.266173,-0.0022506373934447765,-0.003686081152409315,-3.382214708835818e-05,-0.02239990234375,-0.0047607421875,-1.001708984375,98.28962707519531,-22.811141967773438,-41.265869140625,2023-09-09 21:15:56.8370,1694312156.836532,-0.002928825793787837,0.014738001860678196,-0.020994883030653,-0.877349853515625,-0.1508331298828125,-0.4065857231616974,
0,2023-09-09 21:15:39.2530,03:00,10,1,2023-09-09 21:15:57.3640,1694312157.363737,-0.003198456484824419,-0.005101551301777363,-0.00044288369826972485,-0.02313232421875,-0.00445556640625,-1.00335693359375,98.461669921875,-23.079849243164062,-41.28379821777344,2023-09-09 21:15:56.9360,1694312156.936404,-0.01609935611486435,0.00994670856744051,-0.011145912110805511,-0.8918151259422302,-0.1915740966796875,-0.4015350341796875,
0,2023-09-09 21:15:39.2530,03:00,10,1,2023-09-09 21:15:57.4540,1694312157.454023,-0.000883636821527034,-0.004794755019247532,-0.0025885924696922302,-0.0245819091796875,-0.003753662109375,-0.999603271484375,98.461669921875,-23.079849243164062,-41.28379821777344,2023-09-09 21:15:57.0360,1694312157.036298,-0.003875712864100933,-0.0033749546855688095,-0.022321734577417374,-0.8770446181297302,-0.1949767917394638,-0.4091033637523651,
0,2023-09-09 21:15:39.2530,03:00,10,1,2023-09-09 21:15:57.5540,1694312157.553978,-0.0015960324089974165,-0.003126284806057811,-0.002776345470920205,-0.023040771484375,-0.0041351318359375,-1.00128173828125,98.33351135253906,-22.68914794921875,-41.58680725097656,2023-09-09 21:15:57.1360,1694312157.136092,-0.010058174841105938,0.011702131479978561,-0.019597221165895462,-0.9054413437843323,-0.1842041164636612,-0.4087677597999573,
0,2023-09-09 21:15:39.2530,03:00,10,1,2023-09-09 21:15:57.6540,1694312157.654362,-0.002520149340853095,-0.0039012646302580833,-0.0030743530951440334,-0.022613525390625,-0.0034027099609375,-1.001190185546875,98.32546997070312,-22.9718017578125,-41.578399658203125,2023-09-09 21:15:57.2360,1694312157.235909,0.014198629185557365,-0.018943794071674347,-0.025926724076271057,-0.8947906494140625,-0.1757354736328125,-0.4199677109718323,
0,2023-09-09 21:15:39.2530,03:00,10,1,2023-09-09 21:15:57.7540,1694312157.7539868,-0.0013555489713326097,-0.001958222361281514,-0.0043891556560993195,-0.0235748291015625,-0.0045318603515625,-1.001251220703125,98.39749145507812,-22.903167724609375,-41.795318603515625,2023-09-09 21:15:57.3360,1694312157.3356051,-0.025295983999967575,0.019183482974767685,-0.02578561007976532,-0.8862610459327698,-0.1809539943933487,-0.38822945952415466,
0,2023-09-09 21:15:39.2530,03:00,10,1,2023-09-09 21:15:57.8540,1694312157.8544822,0.001323857344686985,-0.006934072356671095,-0.004821120295673609,-0.0233306884765625,-0.0044708251953125,-1.0012359619140625,98.25048828125,-22.678619384765625,-41.45133972167969,2023-09-09 21:15:57.4360,1694312157.435748,-0.01009798888117075,0.015739217400550842,-0.005725947208702564,-0.8920287489891052,-0.1716766208410263,-0.4056243896484375,
0,2023-09-09 21:15:39.2530,03:00,10,1,2023-09-09 21:15:57.9660,1694312157.9659672,-0.0013353090034797788,-0.005797701422125101,-0.004766259342432022,-0.0225067138671875,-0.003265380859375,-1.00213623046875,98.23147583007812,-22.855316162109375,-41.82676696777344,2023-09-09 21:15:57.5350,1694312157.535239,-0.003248605178669095,0.01362120546400547,0.028858529403805733,-0.8929901123046875,-0.1980133056640625,-0.4263153374195099,
0,2023-09-09 21:15:39.2530,03:00,10,1,2023-09-09 21:15:58.0660,1694312158.065549,-0.002713228575885296,-0.005328985396772623,0.0012122709304094315,-0.022796630859375,-0.0034027099609375,-1.001617431640625,98.19842529296875,-22.56402587890625,-41.578216552734375,2023-09-09 21:15:57.6350,1694312157.635106,0.024882566183805466,0.006034526042640209,-0.011855445802211761,-0.88922119140625,-0.174468994140625,-0.4256897270679474,
0,2023-09-09 21:15:39.2530,03:00,10,1,2023-09-09 21:15:58.1640,1694312158.163725,0.0007073355955071747,-0.005358280148357153,-0.0011856392957270145,-0.0247650146484375,-0.0028076171875,-0.999603271484375,98.37751770019531,-22.754745483398438,-41.16520690917969,2023-09-09 21:15:57.7350,1694312157.734828,0.02226547710597515,0.0007468187250196934,-0.020435750484466553,-0.879928469657898,-0.1894530951976776,-0.4175567328929901,
0,2023-09-09 21:15:39.2530,03:00,10,1,2023-09-09 21:15:58.2550,1694312158.254583,-0.0008338357438333333,-0.005032309330999851,-0.0026498453225940466,-0.0234375,-0.003570556640625,-1.0010528564453125,98.37751770019531,-22.754745483398438,-41.16520690917969,2023-09-09 21:15:57.8350,1694312157.834858,0.024019833654165268,-0.013859820552170277,-0.001662396127358079,-0.8702697157859802,-0.1730041354894638,-0.432525634765625,
0,2023-09-09 21:15:39.2530,03:00,10,1,2023-09-09 21:15:58.3540,1694312158.353925,-0.001886317040771246,-0.0023957795929163694,0.00032437301706522703,-0.02215576171875,-0.0041656494140625,-1.0016632080078125,98.2969970703125,-22.705535888671875,-41.574676513671875,2023-09-09 21:15:57.9350,1694312157.93469,-0.015083758160471916,0.002673082984983921,0.0006422369042411447,-0.8953094482421875,-0.2061309814453125,-0.4150848388671875,
0,2023-09-09 21:15:39.2530,03:00,10,1,2023-09-09 21:15:58.4540,1694312158.454243,0.001520398654974997,-0.005795038305222988,-0.0052384380251169205,-0.0225067138671875,-0.0042266845703125,-1.000732421875,98.43318176269531,-22.688003540039062,-41.55033874511719,2023-09-09 21:15:58.0350,1694312158.034574,-0.0002424952108412981,0.011856195516884327,0.008122524246573448,-0.8735961318016052,-0.18644709885120392,-0.42523193359375,
0,2023-09-09 21:15:39.2530,03:00,10,1,2023-09-09 21:15:58.5540,1694312158.5542068,0.001520398654974997,-0.005795038305222988,-0.0052384380251169205,-0.0229644775390625,-0.004058837890625,-1.001220703125,98.19558715820312,-22.658966064453125,-41.31040954589844,2023-09-09 21:15:58.1340,1694312158.134454,0.020880967378616333,0.0065667578019201756,-0.01060419250279665,-0.8899383544921875,-0.1979522705078125,-0.4175262749195099,
0,2023-09-09 21:15:39.2530,03:00,10,1,2023-09-09 21:15:58.6540,1694312158.654037,-0.0033630398102104664,-0.005399026442319155,-0.0007888282998465002,-0.0230255126953125,-0.0035858154296875,-1.0016326904296875,98.3397216796875,-22.792984008789062,-41.446746826171875,2023-09-09 21:15:58.2340,1694312158.234153,0.021526848897337914,0.0012251222506165504,-0.014982862398028374,-0.8775482177734375,-0.1874389797449112,-0.4310760796070099,
0,2023-09-09 21:15:39.2530,03:00,10,1,2023-09-09 21:15:58.7540,1694312158.7543669,0.0002623213513288647,-0.004111654590815306,-0.0026557042729109526,-0.0223236083984375,-0.004241943359375,-1.0016021728515625,98.38334655761719,-22.76055908203125,-41.04786682128906,2023-09-09 21:15:58.3340,1694312158.334086,-0.029140988364815712,0.025481991469860077,0.0069077229127287865,-0.8886260986328125,-0.2062835544347763,-0.41461181640625,
0,2023-09-09 21:15:39.2530,03:00,10,1,2023-09-09 21:15:58.8540,1694312158.854003,0.0010956244077533484,-0.002546780975535512,-0.000297475082334131,-0.02313232421875,-0.004241943359375,-0.9995880126953125,98.23663330078125,-22.487640380859375,-41.46185302734375,2023-09-09 21:15:58.4340,1694312158.433844,0.004631222225725651,0.005535981152206659,0.005781938321888447,-0.8843382596969604,-0.1762237250804901,-0.4288482666015625,
0,2023-09-09 21:15:39.2530,03:00,10,1,2023-09-09 21:15:58.9660,1694312158.9657202,-0.0001323590986430645,-0.0027542412281036377,0.00022317290131468326,-0.023529052734375,-0.004241943359375,-1.001220703125,98.37687683105469,-22.677337646484375,-41.50944519042969,2023-09-09 21:15:58.5340,1694312158.5338678,-0.04440329968929291,0.016432305797934532,0.008021323941648006,-0.8948363661766052,-0.205780029296875,-0.4206695854663849,
0,2023-09-09 21:15:39.2530,03:00,10,1,2023-09-09 21:15:59.0660,1694312159.065774,-0.004295678809285164,-0.0031555795576423407,-0.0029941920656710863,-0.0219268798828125,-0.0039520263671875,-1.0032958984375,98.24815368652344,-22.77374267578125,-41.24092102050781,2023-09-09 21:15:58.6340,1694312158.63358,0.0556848868727684,-0.012049537152051926,-0.012058345600962639,-0.8922271132469177,-0.168426513671875,-0.43115234375,
0,2023-09-09 21:15:39.2530,03:00,10,1,2023-09-09 21:15:59.1630,1694312159.1629229,-0.0009483516332693398,-0.007960987277328968,-0.001219727797433734,-0.0225677490234375,-0.005645751953125,-1.002410888671875,98.34555053710938,-22.55926513671875,-41.63960266113281,2023-09-09 21:15:58.7330,1694312158.733432,0.045237839221954346,-0.05209815502166748,-0.02563340961933136,-0.875030517578125,-0.1938171237707138,-0.4347686469554901,
0,2023-09-09 21:15:39.2530,03:00,10,1,2023-09-09 21:15:59.2540,1694312159.254359,-0.0009483516332693398,-0.007960987277328968,-0.001219727797433734,-0.0240936279296875,-0.004486083984375,-1.0003814697265625,98.33491516113281,-22.803985595703125,-41.10595703125,2023-09-09 21:15:58.8330,1694312158.833276,-0.02239999547600746,0.04727144539356232,-0.018750101327896118,-0.8753814101219177,-0.1737212836742401,-0.4104766547679901,
0,2023-09-09 21:15:39.2530,03:00,10,1,2023-09-09 21:15:59.3540,1694312159.353963,-0.0015342470724135637,-0.004766792058944702,-0.002058357233181596,-0.0228424072265625,-0.004974365234375,-1.00213623046875,98.303466796875,-22.535140991210938,-41.71403503417969,2023-09-09 21:15:58.9330,1694312158.933203,0.016254721209406853,0.0026637623086571693,-0.002888848539441824,-0.8809356689453125,-0.200531005859375,-0.41455078125,
0,2023-09-09 21:15:39.2530,03:00,10,1,2023-09-09 21:15:59.4660,1694312159.4659839,-0.0003097256412729621,-0.002579271560534835,-0.005549761466681957,-0.02178955078125,-0.004730224609375,-1.002899169921875,98.3529052734375,-22.702911376953125,-41.637298583984375,2023-09-09 21:15:59.0360,1694312159.0362492,0.038579199463129044,-0.030553046613931656,0.0019214863423258066,-0.8882293105125427,-0.2065887302160263,-0.430999755859375,
0,2023-09-09 21:15:39.2530,03:00,10,1,2023-09-09 21:15:59.5540,1694312159.55393,-0.0003097256412729621,-0.002579271560534835,-0.005549761466681957,-0.024200439453125,-0.0040130615234375,-1.0001068115234375,98.15895080566406,-22.62896728515625,-41.58244323730469,2023-09-09 21:15:59.1330,1694312159.1328459,0.07065830379724503,-0.02812131494283676,-0.0007575205527245998,-0.8873749375343323,-0.1946258693933487,-0.42997750639915466,
0,2023-09-09 21:15:39.2530,03:00,10,1,2023-09-09 21:15:59.6540,1694312159.65377,0.00046046054922044277,-0.0067697553895413876,-0.003433080855756998,-0.024261474609375,-0.003143310546875,-1.0006866455078125,98.17926025390625,-22.785873413085938,-41.79339599609375,2023-09-09 21:15:59.2330,1694312159.2326798,0.02118556573987007,0.00718314666301012,-0.014073992148041725,-0.880340576171875,-0.1862335056066513,-0.4210052490234375,
0,2023-09-09 21:15:39.2530,03:00,10,1,2023-09-09 21:15:59.7540,1694312159.753885,0.00015659387281630188,-0.0026618295814841986,-0.0031824775505810976,-0.02239990234375,-0.0047454833984375,-1.0013275146484375,98.3875732421875,-22.92364501953125,-41.516021728515625,2023-09-09 21:15:59.3330,1694312159.332612,0.00019779172725975513,-0.018123941496014595,-0.017867831513285637,-0.8645934462547302,-0.201263427734375,-0.4140014350414276,
0,2023-09-09 21:15:39.2530,03:00,10,1,2023-09-09 21:15:59.8540,1694312159.853812,2.5832661776803434e-05,-0.005827795248478651,-0.0008572715451009572,-0.0223236083984375,-0.0043792724609375,-1.001129150390625,98.27772521972656,-22.802139282226562,-41.356414794921875,2023-09-09 21:15:59.4320,1694312159.432279,0.015952853485941887,-0.021703362464904785,-0.013554874807596207,-0.8747863173484802,-0.20495600998401642,-0.409210205078125,
0,2023-09-09 21:15:39.2530,03:00,10,1,2023-09-09 21:15:59.9660,1694312159.9658961,-0.0008554073283448815,-0.005392102058976889,-0.0032831449061632156,-0.0229034423828125,-0.004119873046875,-1.001190185546875,98.36476135253906,-22.564697265625,-41.36846923828125,2023-09-09 21:15:59.5320,1694312159.532069,0.001949419267475605,-0.020611997693777084,-0.010039501823484898,-0.8837127089500427,-0.2300109565258026,-0.4051208198070526,
0,2023-09-09 21:15:39.2530,03:00,10,1,2023-09-09 21:16:00.0690,1694312160.068691,-0.0004625910660251975,-0.00452843913808465,-0.0018224010709673166,-0.0223388671875,-0.004180908203125,-1.00018310546875,98.17744445800781,-22.54400634765625,-41.478973388671875,2023-09-09 21:15:59.6320,1694312159.631948,0.08324693888425827,-0.04225417971611023,-0.013007063418626785,-0.8748015761375427,-0.1918334811925888,-0.4395141899585724,
0,2023-09-09 21:15:39.2530,03:00,10,1,2023-09-09 21:16:00.1550,1694312160.1548219,-0.0004625910660251975,-0.00452843913808465,-0.0018224010709673166,-0.0221710205078125,-0.004119873046875,-1.0021820068359375,98.36552429199219,-22.661956787109375,-41.1317138671875,2023-09-09 21:15:59.7320,1694312159.731741,0.03240213543176651,-0.01626385748386383,-0.022826004773378372,-0.8736266493797302,-0.1819305121898651,-0.4091796875,
0,2023-09-09 21:15:39.2530,03:00,10,1,2023-09-09 21:16:00.2540,1694312160.254025,-0.0021979068405926228,-0.007427556440234184,-0.003941478207707405,-0.024261474609375,-0.0033111572265625,-1.0004425048828125,98.32170104980469,-22.840408325195312,-41.01902770996094,2023-09-09 21:15:59.8320,1694312159.8315768,-0.009299106895923615,0.01033952459692955,-0.016075890511274338,-0.8812713623046875,-0.1983642429113388,-0.4001312255859375,
0,2023-09-09 21:15:39.2530,03:00,10,1,2023-09-09 21:16:00.3640,1694312160.3641481,-0.00016458335448987782,-0.0032402679789811373,-0.00538304727524519,-0.0225830078125,-0.00439453125,-1.0024566650390625,98.26986694335938,-22.4638671875,-41.417327880859375,2023-09-09 21:15:59.9320,1694312159.9315228,0.020976241677999496,-0.0034995917230844498,0.01937118172645569,-0.8757935762405396,-0.2044983059167862,-0.4224243760108948,
0,2023-09-09 21:15:39.2530,03:00,10,1,2023-09-09 21:16:00.4660,1694312160.465695,-0.0016769925132393837,-0.006763896439224482,-0.00395852280780673,-0.0222930908203125,-0.0042877197265625,-1.0004119873046875,98.24958801269531,-22.665206909179688,-41.6021728515625,2023-09-09 21:16:00.0310,1694312160.031427,0.0376441664993763,-0.008243479765951633,-0.00040518445894122124,-0.8967438340187073,-0.2094879150390625,-0.4167328178882599,
0,2023-09-09 21:15:39.2530,03:00,10,1,2023-09-09 21:16:00.5660,1694312160.565851,-0.0006468818173743784,-0.006517554167658091,-0.0028602350503206253,-0.022735595703125,-0.0051422119140625,-1.0014801025390625,98.19940185546875,-22.579193115234375,-41.5037841796875,2023-09-09 21:16:00.1310,1694312160.131322,-0.005332994274795055,0.013276726007461548,-0.021510936319828033,-0.869415283203125,-0.2156829535961151,-0.4129791557788849,
0,2023-09-09 21:15:39.2530,03:00,10,1,2023-09-09 21:16:00.6540,1694312160.6544561,-0.0006468818173743784,-0.006517554167658091,-0.0028602350503206253,-0.0227813720703125,-0.0043792724609375,-1.001068115234375,98.22544860839844,-22.689178466796875,-41.572662353515625,2023-09-09 21:16:00.2310,1694312160.230957,0.021944431588053703,-0.014761832542717457,-0.022571805864572525,-0.8773499131202698,-0.2355804741382599,-0.4212341904640198,
0,2023-09-09 21:15:39.2530,03:00,10,1,2023-09-09 21:16:00.7660,1694312160.765738,-0.0043910201638937,-0.0026160231791436672,-0.002624811604619026,-0.022918701171875,-0.0049896240234375,-1.0011138916015625,98.374755859375,-22.668182373046875,-41.62330627441406,2023-09-09 21:16:00.3310,1694312160.3308558,0.03372685983777046,0.01536504365503788,-0.020862089470028877,-0.8820953369140625,-0.1859283149242401,-0.4134216010570526,
0,2023-09-09 21:15:39.2530,03:00,10,1,2023-09-09 21:16:00.8670,1694312160.8671741,-0.0014660701854154468,-0.003917776048183441,-0.0014612764352932572,-0.02197265625,-0.00445556640625,-1.0010223388671875,98.29847717285156,-22.69091796875,-41.63102722167969,2023-09-09 21:16:00.4310,1694312160.430656,0.03418285772204399,-0.0032391343265771866,0.005618886090815067,-0.8882903456687927,-0.2077331393957138,-0.418731689453125,
0,2023-09-09 21:15:39.2530,03:00,10,1,2023-09-09 21:16:00.9540,1694312160.954009,-0.0014660701854154468,-0.003917776048183441,-0.0014612764352932572,-0.0242462158203125,-0.0039520263671875,-1.00042724609375,98.29432678222656,-22.801651000976562,-41.58561706542969,2023-09-09 21:16:00.5300,1694312160.530431,0.0016433557029813528,0.013756759464740753,-0.015433435328304768,-0.8814849257469177,-0.2187347412109375,-0.424072265625,
0,2023-09-09 21:15:39.2530,03:00,10,1,2023-09-09 21:16:01.0660,1694312161.0664349,-0.0005363606614992023,-0.005190767347812653,-0.0030330740846693516,-0.0234375,-0.0039825439453125,-1.0018157958984375,98.13740539550781,-22.96173095703125,-41.80975341796875,2023-09-09 21:16:00.6300,1694312160.630377,-0.008354151621460915,0.0058173444122076035,-0.008677661418914795,-0.8876952528953552,-0.2071380317211151,-0.4164275825023651,
0,2023-09-09 21:15:39.2530,03:00,10,1,2023-09-09 21:16:01.1630,1694312161.163097,0.0010226538870483637,-0.0027590349782258272,-0.002502838848158717,-0.0225982666015625,-0.003997802734375,-1.0020294189453125,98.02587890625,-22.57513427734375,-41.79539489746094,2023-09-09 21:16:00.7300,1694312160.729965,-0.013385195285081863,0.00538950739428401,-0.03089877776801586,-0.8787688612937927,-0.2142944186925888,-0.4017181694507599,
0,2023-09-09 21:15:39.2530,03:00,10,1,2023-09-09 21:16:01.2660,1694312161.265761,0.0011249192757532,-0.004999552387744188,-0.0033475933596491814,-0.0226593017578125,-0.0052337646484375,-1.0003814697265625,98.14021301269531,-22.605682373046875,-41.891998291015625,2023-09-09 21:16:00.8300,1694312160.829925,-0.005787130445241928,-0.0024499064311385155,-0.01036597229540348,-0.8702239990234375,-0.2213592380285263,-0.4147339165210724,
0,2023-09-09 21:15:39.2530,03:00,10,1,2023-09-09 21:16:01.3660,1694312161.36572,-0.0021345235873013735,-0.007923969067633152,-0.0031787490006536245,-0.0231781005859375,-0.003662109375,-1.001007080078125,98.26719665527344,-22.630386352539062,-41.63008117675781,2023-09-09 21:16:00.9300,1694312160.929788,0.03663003444671631,-0.01620127260684967,0.010964915156364441,-0.8597410917282104,-0.22668452560901642,-0.4319457411766052,
0,2023-09-09 21:15:39.2530,03:00,10,1,2023-09-09 21:16:01.4650,1694312161.465369,-7.98948312876746e-05,-0.003500991500914097,-0.0036485306918621063,-0.022491455078125,-0.0042877197265625,-1.0009002685546875,97.9615478515625,-22.441375732421875,-41.60606384277344,2023-09-09 21:16:01.0400,1694312161.040417,-0.037186864763498306,-0.0021319249644875526,-0.0007258623372763395,-0.8664246201515198,-0.2377777397632599,-0.4160156846046448,
0,2023-09-09 21:15:39.2530,03:00,10,1,2023-09-09 21:16:01.5540,1694312161.554225,0.0008870989549905062,-0.004240551497787237,-0.0033193640410900116,-0.022674560546875,-0.0043487548828125,-1.00225830078125,98.24537658691406,-22.590347290039062,-41.385406494140625,2023-09-09 21:16:01.1300,1694312161.129637,0.002652227645739913,-0.005209607072174549,-0.012622635811567307,-0.8792572617530823,-0.2189026027917862,-0.3989563584327698,
0,2023-09-09 21:15:39.2530,03:00,10,1,2023-09-09 21:16:01.6540,1694312161.654278,-0.0015691345324739814,-0.003343332326039672,-0.001910019083879888,-0.024627685546875,-0.00360107421875,-1.0010223388671875,98.14208984375,-22.606948852539062,-41.416534423828125,2023-09-09 21:16:01.2290,1694312161.229257,-0.011397278867661953,0.009762418456375599,0.006680355407297611,-0.8697357177734375,-0.2311706393957138,-0.4115295708179474,
0,2023-09-09 21:15:39.2530,03:00,10,1,2023-09-09 21:16:01.7660,1694312161.765637,0.001942243310622871,-0.003084206720814109,-0.0037950044497847557,-0.0227203369140625,-0.0049896240234375,-1.0010833740234375,98.18547058105469,-22.559341430664062,-41.65434265136719,2023-09-09 21:16:01.3290,1694312161.32917,-0.009349641390144825,0.02144024521112442,0.0011181104928255081,-0.872802734375,-0.2228545993566513,-0.419403076171875,
0,2023-09-09 21:15:39.2530,03:00,10,1,2023-09-09 21:16:01.8650,1694312161.864567,-0.0038573225028812885,-0.0037912761326879263,-0.0027318706270307302,-0.0230560302734375,-0.0047149658203125,-1.000946044921875,98.04884338378906,-22.568283081054688,-41.46246337890625,2023-09-09 21:16:01.4290,1694312161.429088,0.005811735056340694,0.0012854430824518204,-0.0025294881779700518,-0.8815764784812927,-0.21975703537464142,-0.4285736083984375,
0,2023-09-09 21:15:39.2530,03:00,10,1,2023-09-09 21:16:01.9660,1694312161.9657679,-0.0015361113473773003,-0.003320961957797408,-0.0030184267088770866,-0.0228729248046875,-0.0052947998046875,-1.00079345703125,98.27838134765625,-22.639694213867188,-41.75498962402344,2023-09-09 21:16:01.5290,1694312161.52882,-0.03658612072467804,0.030881818383932114,0.011496082879602909,-0.8810272216796875,-0.21514892578125,-0.4173431396484375,
0,2023-09-09 21:15:39.2530,03:00,10,1,2023-09-09 21:16:02.0540,1694312162.053955,-0.0008207862265408039,-0.0017129451734945178,-0.0009406284661963582,-0.0231475830078125,-0.0048828125,-1.001800537109375,98.25016784667969,-22.848312377929688,-41.22801208496094,2023-09-09 21:16:01.6290,1694312161.6288319,-0.008350955322384834,0.0077071236446499825,-0.019492225721478462,-0.8786468505859375,-0.2082366943359375,-0.4168548882007599,
0,2023-09-09 21:15:39.2530,03:00,10,1,2023-09-09 21:16:02.1630,1694312162.1633592,5.0600061513250694e-05,-0.0027212179265916348,-0.0034967304673045874,-0.0225067138671875,-0.00506591796875,-1.0005340576171875,98.26960754394531,-22.657821655273438,-41.68766784667969,2023-09-09 21:16:01.7290,1694312161.728551,0.004165435675531626,0.0029226215556263924,-0.005169246345758438,-0.8779144883155823,-0.2123718112707138,-0.4107513427734375,
0,2023-09-09 21:15:39.2530,03:00,10,1,2023-09-09 21:16:02.2650,1694312162.264579,-0.0008918926469050348,-0.005566272884607315,-0.0038043255917727947,-0.024627685546875,-0.0050048828125,-1.000885009765625,98.18682861328125,-22.742599487304688,-41.60960388183594,2023-09-09 21:16:01.8280,1694312161.828332,0.00638990756124258,0.008027502335608006,0.014945375733077526,-0.8768463730812073,-0.2213135063648224,-0.41999825835227966,
0,2023-09-09 21:15:39.2530,03:00,10,1,2023-09-09 21:16:02.3660,1694312162.365619,-0.0008487494196742773,-0.0022562299855053425,0.0004953479510731995,-0.0225372314453125,-0.004364013671875,-1.00262451171875,98.30528259277344,-22.755950927734375,-41.6956787109375,2023-09-09 21:16:01.9280,1694312161.928115,0.02787056565284729,-0.010540856048464775,0.0027942375745624304,-0.86590576171875,-0.2184295505285263,-0.4274139702320099,
0,2023-09-09 21:15:39.2530,03:00,10,1,2023-09-09 21:16:02.4540,1694312162.454167,-0.0016431703697890043,-0.0029640982393175364,-0.0013760552974417806,-0.0224761962890625,-0.00384521484375,-1.0012969970703125,98.30137634277344,-22.57171630859375,-41.868438720703125,2023-09-09 21:16:02.0280,1694312162.028096,0.006580590270459652,0.009151355363428593,-0.021283602342009544,-0.8712005019187927,-0.2422637939453125,-0.4244537055492401,
0,2023-09-09 21:15:39.2530,03:00,10,1,2023-09-09 21:16:02.5650,1694312162.564574,-0.0003448793722782284,-0.003439472522586584,-0.0020117517560720444,-0.022613525390625,-0.003814697265625,-1.0024566650390625,98.29838562011719,-22.651748657226562,-41.71124267578125,2023-09-09 21:16:02.1280,1694312162.128156,0.018774205818772316,-0.012844623066484928,-0.0018842373974621296,-0.866485595703125,-0.2074127346277237,-0.413909912109375,
0,2023-09-09 21:15:39.2530,03:00,10,1,2023-09-09 21:16:02.6640,1694312162.663939,-0.0025931198615580797,-0.00523577444255352,-0.004746552091091871,-0.02337646484375,-0.00372314453125,-1.0007171630859375,98.23997497558594,-22.635711669921875,-41.843658447265625,2023-09-09 21:16:02.2280,1694312162.227696,0.00384572334587574,-0.005168594419956207,-0.007894925773143768,-0.8867949843406677,-0.2199248969554901,-0.4060516059398651,
0,2023-09-09 21:15:39.2530,03:00,10,1,2023-09-09 21:16:02.7650,1694312162.7653189,-0.0013275857781991363,-0.005179848056286573,-0.002493251347914338,-0.022003173828125,-0.004913330078125,-1.001617431640625,98.13929748535156,-22.58453369140625,-41.79884338378906,2023-09-09 21:16:02.3280,1694312162.327578,-0.02558400295674801,-0.002399573102593422,-0.0016172223258763552,-0.88568115234375,-0.25201416015625,-0.4104156494140625,
0,2023-09-09 21:15:39.2530,03:00,10,1,2023-09-09 21:16:02.8660,1694312162.86557,-5.0333743274677545e-05,-0.001999767730012536,-0.0017952368361875415,-0.0228729248046875,-0.0045166015625,-1.0005035400390625,98.28804016113281,-22.833328247070312,-41.37059020996094,2023-09-09 21:16:02.4270,1694312162.427374,0.03638515621423721,-0.018750980496406555,-0.024877170100808144,-0.8838348388671875,-0.2126770168542862,-0.4047241508960724,
0,2023-09-09 21:15:39.2530,03:00,10,1,2023-09-09 21:16:02.9650,1694312162.965208,0.0003384877636563033,-0.005365204066038132,-0.0008900284301489592,-0.0204925537109375,-0.003936767578125,-1.0013427734375,98.2747802734375,-22.729446411132812,-41.59571838378906,2023-09-09 21:16:02.5270,1694312162.527203,0.006932859309017658,-0.0026236772537231445,-0.0073065003380179405,-0.8748167753219604,-0.2082671970129013,-0.4086151123046875,
0,2023-09-09 21:15:39.2530,03:00,10,1,2023-09-09 21:16:03.0540,1694312163.054031,5.4861116950633004e-05,-0.0021885856986045837,-0.002383262850344181,-0.02178955078125,-0.00347900390625,-1.0010833740234375,98.17300415039062,-22.812057495117188,-41.554962158203125,2023-09-09 21:16:02.6270,1694312162.6270971,-0.018447598442435265,0.006832408718764782,-0.015600914135575294,-0.8855438828468323,-0.2296600490808487,-0.4066162705421448,
0,2023-09-09 21:15:39.2530,03:00,10,1,2023-09-09 21:16:03.1620,1694312163.162096,-0.0043899547308683395,-0.0010964233661070466,-0.0038368161767721176,-0.0222015380859375,-0.0036163330078125,-1.0005950927734375,98.26957702636719,-22.666580200195312,-41.67576599121094,2023-09-09 21:16:02.7270,1694312162.7268739,-0.01040172204375267,0.013483254238963127,-0.0014740105252712965,-0.8787383437156677,-0.2291869968175888,-0.412872314453125,
0,2023-09-09 21:15:39.2530,03:00,10,1,2023-09-09 21:16:03.2540,1694312163.253924,-0.002210956299677491,-0.00446851784363389,-0.0022418489679694176,-0.0224761962890625,-0.004241943359375,-1.0003509521484375,98.13005065917969,-22.445724487304688,-41.266571044921875,2023-09-09 21:16:02.8270,1694312162.826688,-0.010967178270220757,0.01689969003200531,0.0006747939623892307,-0.8825836181640625,-0.2192230224609375,-0.4069671630859375,
0,2023-09-09 21:15:39.2530,03:00,10,1,2023-09-09 21:16:03.3660,1694312163.3655028,0.0009419600828550756,-0.0044346959330141544,-0.003549993736669421,-0.023223876953125,-0.0029296875,-1.0018463134765625,98.21781921386719,-22.695953369140625,-41.16966247558594,2023-09-09 21:16:02.9270,1694312162.926633,-0.003667254000902176,0.0018332558684051037,-0.008397097699344158,-0.8885498046875,-0.2197570651769638,-0.4027862548828125,
0,2023-09-09 21:15:39.2530,03:00,10,1,2023-09-09 21:16:03.4540,1694312163.454313,-0.00030892668291926384,-0.0016439693281427026,-0.0007440872141160071,-0.024749755859375,-0.0036468505859375,-0.9965057373046875,98.271240234375,-22.51617431640625,-41.51606750488281,2023-09-09 21:16:03.0270,1694312163.026569,-0.016974471509456635,0.008997824043035507,-0.004977499134838581,-0.877777099609375,-0.2347259372472763,-0.4241790771484375,
0,2023-09-09 21:15:39.2530,03:00,10,1,2023-09-09 21:16:03.5540,1694312163.554318,-0.0017038905061781406,-0.002386192325502634,-0.002198705682530999,-0.0219268798828125,-0.004364013671875,-1.0017242431640625,98.32377624511719,-22.553512573242188,-41.470367431640625,2023-09-09 21:16:03.1260,1694312163.126378,0.010684255510568619,0.008710336871445179,-0.019542958587408066,-0.882644534111023,-0.2183227241039276,-0.4217986762523651,
0,2023-09-09 21:15:39.2530,03:00,10,1,2023-09-09 21:16:03.6540,1694312163.654144,-0.00330258603207767,-0.004637362435460091,-0.001044225413352251,-0.0229034423828125,-0.0039520263671875,-1.000579833984375,98.33624267578125,-22.7467041015625,-41.150848388671875,2023-09-09 21:16:03.2260,1694312163.226126,-0.016954496502876282,-0.002784266136586666,0.005907905288040638,-0.8852996826171875,-0.2250518798828125,-0.409515380859375,
0,2023-09-09 21:15:39.2530,03:00,10,1,2023-09-09 21:16:03.7660,1694312163.7655668,0.0013052152935415506,-0.006019542925059795,-0.0026525084394961596,-0.0231170654296875,-0.0037689208984375,-0.9998626708984375,98.34947204589844,-22.58050537109375,-41.59944152832031,2023-09-09 21:16:03.3260,1694312163.325931,-0.0019078364130109549,-0.010838864371180534,0.00797421857714653,-0.8861083984375,-0.2268371433019638,-0.4134216606616974,
0,2023-09-09 21:15:39.2530,03:00,10,1,2023-09-09 21:16:03.8540,1694312163.854244,-0.0018439727136865258,-0.004465588368475437,-0.0017395768081769347,-0.021697998046875,-0.0038299560546875,-1.0015716552734375,98.37637329101562,-22.65740966796875,-41.677825927734375,2023-09-09 21:16:03.4260,1694312163.425816,-0.0017392586451023817,0.009512480348348618,0.009640025906264782,-0.8736419081687927,-0.2221069186925888,-0.4177398383617401,
0,2023-09-09 21:15:39.2530,03:00,10,1,2023-09-09 21:16:03.9650,1694312163.965097,-0.0017480988753959537,-0.00504083139821887,-0.0032530513126403093,-0.023162841796875,-0.003570556640625,-1.000518798828125,98.26948547363281,-22.602035522460938,-41.88563537597656,2023-09-09 21:16:03.5260,1694312163.525707,0.007420351263135672,0.008707540109753609,-0.006527591496706009,-0.8715972900390625,-0.2226562350988388,-0.4313812851905823,
0,2023-09-09 21:15:39.2530,03:00,10,1,2023-09-09 21:16:04.0650,1694312164.0654402,-0.003656253917142749,-0.005889314226806164,-0.0035534559283405542,-0.0229339599609375,-0.0041351318359375,-1.001953125,98.28915405273438,-22.8719482421875,-41.52680969238281,2023-09-09 21:16:03.6250,1694312163.625334,0.001004130463115871,0.018068283796310425,2.385093830525875e-05,-0.873336672782898,-0.2019500434398651,-0.433013916015625,
0,2023-09-09 21:15:39.2530,03:00,10,1,2023-09-09 21:16:04.1640,1694312164.1635861,-0.00173717993311584,-0.005107410252094269,-0.003495398908853531,-0.022430419921875,-0.004547119140625,-1.000762939453125,98.20735168457031,-22.817718505859375,-41.686859130859375,2023-09-09 21:16:03.7250,1694312163.7252898,-0.018923571333289146,0.02516600862145424,-0.02006220817565918,-0.8704070448875427,-0.2157439887523651,-0.4107818007469177,
0,2023-09-09 21:15:39.2530,03:00,10,1,2023-09-09 21:16:04.2660,1694312164.265671,-0.000553404854144901,-0.002966495230793953,-0.004126035608351231,-0.02423095703125,-0.004119873046875,-1.0013275146484375,98.30337524414062,-22.281494140625,-41.55931091308594,2023-09-09 21:16:03.8250,1694312163.825111,-0.03164449334144592,0.023543212562799454,0.01110000442713499,-0.875762939453125,-0.2431793063879013,-0.4389953911304474,
0,2023-09-09 21:15:39.2530,03:00,10,1,2023-09-09 21:16:04.3540,1694312164.353926,-6.73779723001644e-05,-0.0023526365403085947,-0.004417917691171169,-0.0230712890625,-0.0041656494140625,-1.0018310546875,98.2750244140625,-22.636932373046875,-41.607513427734375,2023-09-09 21:16:03.9250,1694312163.924895,0.012120896950364113,0.003870307933539152,-0.011738899163901806,-0.8785552382469177,-0.2226562350988388,-0.4339446723461151,
0,2023-09-09 21:15:39.2530,03:00,10,1,2023-09-09 21:16:04.4540,1694312164.454433,-0.0015393070643767715,-0.0035989959724247456,-0.0054480284452438354,-0.0218658447265625,-0.004547119140625,-1.0014190673828125,98.10893249511719,-22.586410522460938,-41.62507629394531,2023-09-09 21:16:04.0250,1694312164.024921,0.0039649661630392075,-0.004396677017211914,-0.015563065186142921,-0.8755645155906677,-0.2434844821691513,-0.4189910590648651,
0,2023-09-09 21:15:39.2530,03:00,10,1,2023-09-09 21:16:04.5650,1694312164.565236,0.0005589975044131279,-0.003993942867964506,-0.0014530207263305783,-0.0226898193359375,-0.0029296875,-1.0003509521484375,98.26988220214844,-22.649459838867188,-41.6240234375,2023-09-09 21:16:04.1250,1694312164.124923,0.026730066165328026,-0.009673196822404861,-0.008759686723351479,-0.867172122001648,-0.2180328220129013,-0.4371490180492401,
0,2023-09-09 21:15:39.2530,03:00,10,1,2023-09-09 21:16:04.6650,1694312164.664548,-0.0005065332516096532,-0.005071457475423813,-0.0006170544074848294,-0.0232696533203125,-0.0032196044921875,-1.0006866455078125,98.21305847167969,-22.665435791015625,-41.533294677734375,2023-09-09 21:16:04.2240,1694312164.224444,0.004864848218858242,-0.016736432909965515,0.001561593497171998,-0.8759002089500427,-0.2379608154296875,-0.4175567924976349,
0,2023-09-09 21:15:39.2530,03:00,10,1,2023-09-09 21:16:04.7650,1694312164.765019,-0.0005560680292546749,-0.0032956618815660477,-0.0011696603614836931,-0.022979736328125,-0.003692626953125,-1.0023193359375,98.38650512695312,-22.639816284179688,-41.08514404296875,2023-09-09 21:16:04.3240,1694312164.324291,0.007155499886721373,-0.0077638449147343636,-0.0005836160853505135,-0.8686522245407104,-0.23162837326526642,-0.4214324653148651,
0,2023-09-09 21:15:39.2530,03:00,10,1,2023-09-09 21:16:04.8540,1694312164.854123,-0.0009755159262567759,-0.0021947110071778297,-0.0027715517207980156,-0.0223541259765625,-0.004730224609375,-1.000946044921875,98.31517028808594,-22.623336791992188,-41.37336730957031,2023-09-09 21:16:04.4240,1694312164.424197,0.012754330411553383,-0.016685834154486656,-0.014601596631109715,-0.876174807548523,-0.2312011420726776,-0.4287719428539276,
0,2023-09-09 21:15:39.2530,03:00,10,1,2023-09-09 21:16:04.9650,1694312164.9647322,-0.002284992253407836,-0.0027856663800776005,-0.0018290589796379209,-0.0239410400390625,-0.003753662109375,-0.9997711181640625,98.27604675292969,-22.42559814453125,-41.28240966796875,2023-09-09 21:16:04.5240,1694312164.524107,0.03055702894926071,-0.01502215676009655,-0.0011748713441193104,-0.8666076064109802,-0.2257842719554901,-0.4224853217601776,
0,2023-09-09 21:15:39.2530,03:00,10,1,2023-09-09 21:16:05.0650,1694312165.065387,0.0004135889175813645,-0.002410160843282938,-0.0030072415247559547,-0.0214080810546875,-0.003875732421875,-1.0013275146484375,98.32807922363281,-22.797409057617188,-41.24798583984375,2023-09-09 21:16:04.6240,1694312164.624044,-0.007015845738351345,0.0006046066991984844,-0.00213590613566339,-0.86541748046875,-0.2435760349035263,-0.419097900390625,
0,2023-09-09 21:15:39.2530,03:00,10,1,2023-09-09 21:16:05.1630,1694312165.163015,-0.0017363809747621417,-0.0065324679017066956,-0.003567037871107459,-0.0220794677734375,-0.0042724609375,-1.001251220703125,98.211181640625,-22.524734497070312,-41.39903259277344,2023-09-09 21:16:04.7240,1694312164.723761,0.014996045269072056,-0.018885072320699692,-0.0103821512311697,-0.862106442451477,-0.2391357421875,-0.41546639800071716,
0,2023-09-09 21:15:39.2530,03:00,10,1,2023-09-09 21:16:05.2660,1694312165.265662,-0.0018373148050159216,-0.0028423918411135674,-0.003206712193787098,-0.0236358642578125,-0.0035858154296875,-0.9999542236328125,98.16647338867188,-22.685302734375,-41.618927001953125,2023-09-09 21:16:04.8240,1694312164.8236861,0.0015169886173680425,-0.007156510837376118,-0.01062170322984457,-0.84783935546875,-0.2257079929113388,-0.4167938530445099,
0,2023-09-09 21:15:39.2530,03:00,10,1,2023-09-09 21:16:05.3660,1694312165.365504,-0.0010423612548038363,-0.005122856702655554,-0.0006261091912165284,-0.0221405029296875,-0.0029754638671875,-1.00244140625,98.14106750488281,-22.6640625,-41.516326904296875,2023-09-09 21:16:04.9230,1694312164.92349,-0.018724899739027023,-0.011915845796465874,-0.000699696596711874,-0.8698883056640625,-0.2381896823644638,-0.4070281982421875,
0,2023-09-09 21:15:39.2530,03:00,10,1,2023-09-09 21:16:05.4540,1694312165.454473,-0.0008386294357478619,-0.004129763692617416,-0.0026072347536683083,-0.0213165283203125,-0.0051422119140625,-1.0015411376953125,98.30754089355469,-22.638931274414062,-41.5736083984375,2023-09-09 21:16:05.0230,1694312165.023387,-0.004443299025297165,-0.011168562807142735,0.009143546223640442,-0.8863525390625,-0.2443237155675888,-0.4071197509765625,
0,2023-09-09 21:15:39.2530,03:00,10,1,2023-09-09 21:16:05.5660,1694312165.565578,-0.0029174929950386286,-0.003369963960722089,-0.003026416292414069,-0.022613525390625,-0.003173828125,-0.9988250732421875,98.1346435546875,-22.402633666992188,-41.655242919921875,2023-09-09 21:16:05.1230,1694312165.123271,-0.03223538398742676,0.03536298871040344,-0.003680839203298092,-0.8946533203125,-0.2479400634765625,-0.3832549750804901,
0,2023-09-09 21:15:39.2530,03:00,10,1,2023-09-09 21:16:05.6630,1694312165.663187,-0.003341201925650239,-0.004547081422060728,-0.0035087147261947393,-0.02154541015625,-0.0041656494140625,-0.99993896484375,98.12738037109375,-22.548080444335938,-41.872344970703125,2023-09-09 21:16:05.2230,1694312165.222983,-0.08501957356929779,0.045920420438051224,-9.472621604800224e-05,-0.8772124648094177,-0.2639922946691513,-0.4068145751953125,
0,2023-09-09 21:15:39.2530,03:00,10,1,2023-09-09 21:16:05.7650,1694312165.765466,3.0360035452758893e-05,-0.00603392394259572,-0.004534298088401556,-0.0214385986328125,-0.0035552978515625,-1.002777099609375,98.10365295410156,-22.774490356445312,-41.55149841308594,2023-09-09 21:16:05.3230,1694312165.322836,0.01600172184407711,-0.025172926485538483,0.04855809733271599,-0.893829345703125,-0.2329254150390625,-0.4436188042163849,
0,2023-09-09 21:15:39.2530,03:00,10,1,2023-09-09 21:16:05.8650,1694312165.8654299,-0.0036509274505078793,-0.004037352278828621,-0.0031814121175557375,-0.0230865478515625,-0.004608154296875,-1.0001373291015625,98.07009887695312,-22.577911376953125,-41.79374694824219,2023-09-09 21:16:05.4230,1694312165.422707,-0.003438688116148114,0.01045830175280571,-0.0030957094859331846,-0.8709563612937927,-0.2155914008617401,-0.4437866508960724,
0,2023-09-09 21:15:39.2530,03:00,10,1,2023-09-09 21:16:05.9660,1694312165.96577,-0.004231496714055538,-0.0030362699180841446,-0.003858121344819665,-0.0234527587890625,-0.00408935546875,-1.0005340576171875,98.26580810546875,-22.734619140625,-41.75083923339844,2023-09-09 21:16:05.5230,1694312165.522575,0.0013950157444924116,-0.009117929264903069,-0.0015467151533812284,-0.8681487441062927,-0.2257079780101776,-0.40496826171875,
0,2023-09-09 21:15:39.2530,03:00,10,1,2023-09-09 21:16:06.0540,1694312166.053924,-0.0018956380663439631,-0.0052051483653485775,-0.002046372974291444,-0.0224761962890625,-0.0040130615234375,-1.001434326171875,98.16816711425781,-22.51104736328125,-41.63163757324219,2023-09-09 21:16:05.6230,1694312165.6225019,-0.025173211470246315,0.005211208947002888,0.01652269996702671,-0.8762816190719604,-0.2438049018383026,-0.4161681532859802,
0,2023-09-09 21:15:39.2530,03:00,10,1,2023-09-09 21:16:06.1630,1694312166.163063,-2.6365294615970924e-05,-0.0010716560063883662,-0.0034527883399277925,-0.0230560302734375,-0.003662109375,-1.000213623046875,98.183349609375,-22.404449462890625,-41.59837341308594,2023-09-09 21:16:05.7220,1694312165.722197,-0.07903870195150375,0.07017582654953003,0.017451409250497818,-0.8807066679000854,-0.2474517524242401,-0.4104003608226776,
0,2023-09-09 21:15:39.2530,03:00,10,1,2023-09-09 21:16:06.2660,1694312166.265561,0.00011052118497900665,-0.005032841581851244,-0.0006609965930692852,-0.0230255126953125,-0.003997802734375,-1.0004425048828125,98.1942138671875,-22.31732177734375,-41.59492492675781,2023-09-09 21:16:05.8220,1694312165.821834,-0.0024415338411927223,0.009217402897775173,-0.001916761277243495,-0.8752593398094177,-0.2497711032629013,-0.4194793403148651,
0,2023-09-09 21:15:39.2530,03:00,10,1,2023-09-09 21:16:06.3650,1694312166.365488,-0.002573146251961589,-0.00851385947316885,-0.00379021093249321,-0.023773193359375,-0.0044403076171875,-1.000518798828125,98.217529296875,-22.573196411132812,-41.35234069824219,2023-09-09 21:16:05.9220,1694312165.921811,0.03275180608034134,-0.012658734805881977,-0.011117815971374512,-0.8564605712890625,-0.2348174899816513,-0.4478912353515625,
0,2023-09-09 21:15:39.2530,03:00,10,1,2023-09-09 21:16:06.4660,1694312166.465569,-0.0006348976166918874,-0.003635481232777238,-0.0033366745337843895,-0.0213623046875,-0.004486083984375,-1.0012054443359375,98.33616638183594,-22.389801025390625,-41.21269226074219,2023-09-09 21:16:06.0220,1694312166.021683,0.015299179591238499,-0.008196608163416386,-0.0013492750003933907,-0.8591766357421875,-0.2149047702550888,-0.4439239501953125,
0,2023-09-09 21:15:39.2530,03:00,10,1,2023-09-09 21:16:06.5640,1694312166.564363,-0.002156095113605261,-0.003823766717687249,-0.0029441246297210455,-0.02154541015625,-0.005035400390625,-1.001983642578125,98.18373107910156,-22.675872802734375,-41.5450439453125,2023-09-09 21:16:06.1220,1694312166.121733,-0.028634920716285706,0.002640192862600088,-0.009057561866939068,-0.8729705810546875,-0.2402496188879013,-0.4201507568359375,
0,2023-09-09 21:15:39.2530,03:00,10,1,2023-09-09 21:16:06.6540,1694312166.654028,-0.0029704899061471224,-0.0054735951125621796,-0.002112685702741146,-0.022705078125,-0.0039825439453125,-1.001708984375,98.19676208496094,-22.299575805664062,-41.479095458984375,2023-09-09 21:16:06.2210,1694312166.221387,0.0034175533801317215,-0.00768328458070755,0.009280964732170105,-0.8709716796875,-0.2458648681640625,-0.4203338921070099,
0,2023-09-09 21:15:39.2530,03:00,10,1,2023-09-09 21:16:06.7660,1694312166.7656698,-0.002662362065166235,-0.004040015395730734,-0.0036852823104709387,-0.024139404296875,-0.0035247802734375,-1.0009307861328125,98.27418518066406,-22.705581665039062,-41.21038818359375,2023-09-09 21:16:06.3210,1694312166.321239,-0.009341584518551826,0.012364326976239681,0.007195809856057167,-0.8793639540672302,-0.23156733810901642,-0.41815185546875,
0,2023-09-09 21:15:39.2530,03:00,10,1,2023-09-09 21:16:06.8550,1694312166.854866,-0.0006167881074361503,0.0009651295840740204,-0.0015307849971577525,-0.0234375,-0.004547119140625,-0.9973602294921875,98.18666076660156,-22.593917846679688,-41.7166748046875,2023-09-09 21:16:06.4210,1694312166.421146,0.004207780119031668,0.004492022097110748,-0.0035982478875666857,-0.876556396484375,-0.2348480224609375,-0.4182586967945099,
0,2023-09-09 21:15:39.2530,03:00,10,1,2023-09-09 21:16:06.9650,1694312166.965322,-0.0018783274572342634,-0.004053863696753979,-0.003299922915175557,-0.0225677490234375,-0.00421142578125,-1.001251220703125,98.40489196777344,-22.69342041015625,-41.89198303222656,2023-09-09 21:16:06.5210,1694312166.520834,0.019541461020708084,0.008795424364507198,-0.003920489922165871,-0.8585968017578125,-0.2244720458984375,-0.420440673828125,
0,2023-09-09 21:15:39.2530,03:00,10,1,2023-09-09 21:16:07.0660,1694312167.066461,-0.00036192359402775764,-0.0027869981713593006,-0.0019707391038537025,-0.022247314453125,-0.0052032470703125,-1.005279541015625,98.28192138671875,-22.403564453125,-42.06175231933594,2023-09-09 21:16:06.6210,1694312166.6207051,-0.004879857879132032,0.0035146428272128105,-0.00035258708521723747,-0.862945556640625,-0.2360687255859375,-0.4336395561695099,
0,2023-09-09 21:15:39.2530,03:00,10,1,2023-09-09 21:16:07.1630,1694312167.1628861,-0.0007789746159687638,-0.00552366254851222,-0.0014002900570631027,-0.0240478515625,-0.00341796875,-0.9996185302734375,98.3465576171875,-22.8433837890625,-41.383758544921875,2023-09-09 21:16:06.7200,1694312166.720474,0.011708839796483517,0.0007944898679852486,0.005394581239670515,-0.8664398193359375,-0.2264556735754013,-0.4379119873046875,
