SessionID,SessionDate,SessionDuration,SessionFrequency,RecordID,Timestamp,timeIntervalSince1970,GyroX,GyroY,GyroZ,AccX,AccY,AccZ,MagX,MagY,MagZ,WatchTimestamp,WatchtImeIntervalSince1970,WatchGyroX,WatchGyroY,WatchGyroZ,WatchAccX,WatchAccY,WatchAccZ
0,2023-09-09 22:05:21.6090,02:37,10,1,2023-09-09 22:05:21.7200,1694315121.719568,-0.001044491771608591,-0.002229332225397229,-0.004061587154865265,0.025665283203125,-0.0535888671875,-1.0012054443359375,108.53515625,-26.909713745117188,-39.62336730957031,2023-09-09 22:05:21.3600,1694315121.359582,0.06167759746313095,0.07061564922332764,-0.10243428498506546,-0.04235837608575821,-0.595260500907898,-0.7959137558937073,
0,2023-09-09 22:05:21.6090,02:37,10,1,2023-09-09 22:05:21.8200,1694315121.819888,0.001115864492021501,-0.00421391986310482,-0.002590723102912307,0.025543212890625,-0.05364990234375,-1.00213623046875,108.41331481933594,-26.820098876953125,-39.32177734375,2023-09-09 22:05:21.4970,1694315121.4970899,0.008707656525075436,0.11052005738019943,-0.1303105652332306,-0.058425888419151306,-0.5684813261032104,-0.7945862412452698,
0,2023-09-09 22:05:21.6090,02:37,10,1,2023-09-09 22:05:21.9200,1694315121.919662,0.0021438447292894125,-0.004433896858245134,-0.003808586625382304,0.0267791748046875,-0.0532684326171875,-1.0016937255859375,108.5848388671875,-27.113006591796875,-39.82713317871094,2023-09-09 22:05:21.5600,1694315121.5603728,0.05839424952864647,0.13217660784721375,-0.062195148319005966,-0.0463561937212944,-0.5703428983688354,-0.8015747666358948,
0,2023-09-09 22:05:21.6090,02:37,10,1,2023-09-09 22:05:22.0200,1694315122.020012,0.0010269149206578732,-0.005452289711683989,-0.0023646207991987467,0.0261688232421875,-0.052520751953125,-1.001312255859375,108.494140625,-27.104583740234375,-39.76628112792969,2023-09-09 22:05:21.6580,1694315121.657676,-0.14294783771038055,0.17575111985206604,-0.020146802067756653,-0.05220030061900616,-0.6035765409469604,-0.7966461181640625,
0,2023-09-09 22:05:21.6090,02:37,10,1,2023-09-09 22:05:22.1200,1694315122.120053,-0.0022889869287610054,-0.007399859372526407,-0.001746234716847539,0.026123046875,-0.0520782470703125,-1.000457763671875,108.55224609375,-27.153701782226562,-39.60194396972656,2023-09-09 22:05:21.7580,1694315121.757914,0.01978633925318718,0.021423067897558212,0.03811949864029884,-0.028259271755814552,-0.604843020439148,-0.7833252549171448,
0,2023-09-09 22:05:21.6090,02:37,10,1,2023-09-09 22:05:22.2200,1694315122.219833,-0.002522279741242528,-0.002213353058323264,-0.004220843780785799,0.0248260498046875,-0.05279541015625,-0.9979248046875,108.37586975097656,-27.024703979492188,-39.87901306152344,2023-09-09 22:05:21.8570,1694315121.857202,0.009381037205457687,-0.02418236806988716,-0.010203258134424686,-0.035339346155524254,-0.6106261014938354,-0.7897186875343323,
0,2023-09-09 22:05:21.6090,02:37,10,1,2023-09-09 22:05:22.3200,1694315122.319953,-0.001702026231214404,-0.0031824775505810976,-0.003867176128551364,0.0274810791015625,-0.0491943359375,-0.9984588623046875,108.38211059570312,-26.902908325195312,-40.19146728515625,2023-09-09 22:05:21.9570,1694315121.956907,-0.002929225331172347,-0.03269476071000099,-0.03289135918021202,-0.021148666739463806,-0.626083254814148,-0.7928162217140198,
0,2023-09-09 22:05:21.6090,02:37,10,1,2023-09-09 22:05:22.4210,1694315122.420856,-0.004220577888190746,-0.005170527379959822,-0.0017638115677982569,0.0260772705078125,-0.0470428466796875,-0.99725341796875,108.44052124023438,-27.009902954101562,-40.54425048828125,2023-09-09 22:05:22.0570,1694315122.056978,0.07298165559768677,-0.07246294617652893,-0.012937557883560658,-0.0339660607278347,-0.6065824627876282,-0.7838134765625,
0,2023-09-09 22:05:21.6090,02:37,10,1,2023-09-09 22:05:22.5210,1694315122.5205789,-0.002900981344282627,-0.0035081820096820593,-0.0025979136116802692,0.0260162353515625,-0.0483245849609375,-0.9972381591796875,108.43629455566406,-26.90106201171875,-40.628509521484375,2023-09-09 22:05:22.1570,1694315122.156748,0.08436719328165054,-0.11128251254558563,-0.0012550698593258858,-0.05354307219386101,-0.583511233329773,-0.7808990478515625,
0,2023-09-09 22:05:21.6090,02:37,10,1,2023-09-09 22:05:22.6100,1694315122.610225,-0.002900981344282627,-0.0035081820096820593,-0.0025979136116802692,0.02587890625,-0.0483245849609375,-0.9969635009765625,108.36296081542969,-26.852951049804688,-40.934295654296875,2023-09-09 22:05:22.2570,1694315122.256647,0.013121313415467739,-0.09035206586122513,-0.04144633188843727,-0.046249378472566605,-0.5783995389938354,-0.7944183945655823,
0,2023-09-09 22:05:21.6090,02:37,10,1,2023-09-09 22:05:22.7100,1694315122.709768,-0.002005360322073102,-0.004537760280072689,-0.0037358824629336596,0.0256195068359375,-0.0486297607421875,-0.99749755859375,108.28363037109375,-27.1185302734375,-40.48974609375,2023-09-09 22:05:22.3560,1694315122.356461,0.023024611175060272,-0.09186514467000961,-0.037771470844745636,-0.0375366136431694,-0.5837706327438354,-0.8070526719093323,
0,2023-09-09 22:05:21.6090,02:37,10,1,2023-09-09 22:05:22.8100,1694315122.810429,-0.00133877107873559,-0.002915362361818552,-0.0031582426745444536,0.027008056640625,-0.050262451171875,-0.9985809326171875,108.02763366699219,-26.609146118164062,-41.03059387207031,2023-09-09 22:05:22.4560,1694315122.4564881,-0.11244513094425201,-0.035264842212200165,-0.06435909867286682,-0.0503387376666069,-0.600692629814148,-0.8074341416358948,
0,2023-09-09 22:05:21.6090,02:37,10,1,2023-09-09 22:05:22.9100,1694315122.909841,0.00011371697473805398,-0.003719637170433998,-0.001674861996434629,0.025665283203125,-0.0517730712890625,-1.0002288818359375,108.25048828125,-26.758438110351562,-41.35289001464844,2023-09-09 22:05:22.5560,1694315122.556154,-0.1480407416820526,-0.05118082836270332,-0.10504218190908432,-0.05444333329796791,-0.6090238690376282,-0.783599853515625,
0,2023-09-09 22:05:21.6090,02:37,10,1,2023-09-09 22:05:23.0100,1694315123.010435,-0.002112685702741146,-0.004279433749616146,-0.001883121207356453,0.0250091552734375,-0.0532379150390625,-1.001708984375,108.26181030273438,-26.907196044921875,-41.009490966796875,2023-09-09 22:05:22.6560,1694315122.656003,-0.15762744843959808,-0.11320424824953079,-0.11178084462881088,-0.0701751597225666,-0.6184386014938354,-0.7797393798828125,
0,2023-09-09 22:05:21.6090,02:37,10,1,2023-09-09 22:05:23.1080,1694315123.108485,0.0028602350503206253,-0.0037774275988340378,-0.0038107172586023808,0.0269012451171875,-0.054351806640625,-1.00225830078125,108.1697998046875,-26.637680053710938,-41.472869873046875,2023-09-09 22:05:22.7560,1694315122.755972,-0.08048919588327408,-0.16659703850746155,-0.07686217874288559,-0.07664487883448601,-0.6096801161766052,-0.7869110107421875,
0,2023-09-09 22:05:21.6090,02:37,10,1,2023-09-09 22:05:23.2100,1694315123.209568,-0.001272990950383246,-0.0035121769178658724,-0.0035177695099264383,0.0250396728515625,-0.0540924072265625,-1.0018463134765625,108.22792053222656,-26.5113525390625,-40.97645568847656,2023-09-09 22:05:22.8560,1694315122.8557448,-0.2465343028306961,-0.1633845865726471,-0.1967923492193222,-0.0887603685259819,-0.5819854140281677,-0.7716980576515198,
0,2023-09-09 22:05:21.6090,02:37,10,1,2023-09-09 22:05:23.3080,1694315123.307544,0.00043516053119674325,-0.004570517223328352,-0.0010982876410707831,0.0232086181640625,-0.0533294677734375,-1.001983642578125,108.30023193359375,-26.701644897460938,-40.6275634765625,2023-09-09 22:05:22.9550,1694315122.955497,-0.3876039385795593,-0.19341732561588287,-0.3229825794696808,-0.1199340894818306,-0.580886721611023,-0.7743683457374573,
0,2023-09-09 22:05:21.6090,02:37,10,1,2023-09-09 22:05:23.4080,1694315123.408366,-0.000672181835398078,-0.006195844151079655,-0.0004295678809285164,0.0245208740234375,-0.0522613525390625,-1.0018310546875,108.18745422363281,-26.882308959960938,-40.81109619140625,2023-09-09 22:05:23.0550,1694315123.055461,-0.11804742366075516,-0.22491958737373352,-0.32712942361831665,-0.0849456638097763,-0.5440062284469604,-0.863555908203125,
0,2023-09-09 22:05:21.6090,02:37,10,1,2023-09-09 22:05:23.5100,1694315123.5098438,-0.0024588967207819223,-0.005585447885096073,-0.0027861990965902805,0.0261993408203125,-0.0510406494140625,-0.9988555908203125,108.217529296875,-26.696273803710938,-41.071075439453125,2023-09-09 22:05:23.1550,1694315123.155326,-0.055240899324417114,-0.15658581256866455,-0.23354269564151764,-0.053009033203125,-0.5128629803657532,-0.8916015625,
0,2023-09-09 22:05:21.6090,02:37,10,1,2023-09-09 22:05:23.6100,1694315123.610386,-0.0004362257895991206,-0.0022543659433722496,-0.0035534559283405542,0.026580810546875,-0.0496673583984375,-0.9998321533203125,108.07574462890625,-26.690322875976562,-40.94050598144531,2023-09-09 22:05:23.2550,1694315123.255116,-0.18990550935268402,-0.11977533251047134,-0.25670126080513,-0.0760955736041069,-0.5125426054000854,-0.8513641953468323,
0,2023-09-09 22:05:21.6090,02:37,10,1,2023-09-09 22:05:23.7090,1694315123.7088861,-0.0017989652696996927,-0.004988633096218109,-0.004314321093261242,0.02703857421875,-0.048736572265625,-0.9973907470703125,108.14512634277344,-27.091094970703125,-40.958740234375,2023-09-09 22:05:23.3550,1694315123.3549771,-1.0147593021392822,0.008754012174904346,-0.7444371581077576,-0.176422119140625,-0.48080435395240784,-0.7059479355812073,
0,2023-09-09 22:05:21.6090,02:37,10,1,2023-09-09 22:05:23.8110,1694315123.8112059,-0.0038836877793073654,-0.0034730283077806234,-0.0041486723348498344,0.0260772705078125,-0.048431396484375,-0.996673583984375,108.41352844238281,-26.903396606445312,-40.640716552734375,2023-09-09 22:05:23.4550,1694315123.454804,-1.8265098333358765,-0.04229945316910744,-1.7533308267593384,-0.15533447595953476,-0.40533438324928284,-0.7415619492530823,
0,2023-09-09 22:05:21.6090,02:37,10,1,2023-09-09 22:05:23.9090,1694315123.908752,-0.0013622068800032139,-0.005305016878992319,-0.00352868833579123,0.022735595703125,-0.04931640625,-0.9961090087890625,108.45196533203125,-27.172500610351562,-40.70013427734375,2023-09-09 22:05:23.5550,1694315123.55456,-2.882786273956299,0.09285890311002731,-3.362527847290039,-0.1448059380054474,-0.3145446181297302,-0.7425689697265625,
0,2023-09-09 22:05:21.6090,02:37,10,1,2023-09-09 22:05:24.0090,1694315124.009157,-0.0025012409314513206,-0.0021638183388859034,-0.0019912454299628735,0.02508544921875,-0.050079345703125,-1.000518798828125,108.40084838867188,-26.902053833007812,-40.62286376953125,2023-09-09 22:05:23.6540,1694315123.654457,-2.3510332107543945,0.40988481044769287,-3.543168067932129,-0.21191410720348358,0.9254150390625,-0.893463134765625,
0,2023-09-09 22:05:21.6090,02:37,10,1,2023-09-09 22:05:24.1100,1694315124.109782,-0.003466636873781681,-0.006681604776531458,-0.0005097290268167853,0.0244293212890625,-0.05364990234375,-1.0009002685546875,108.38380432128906,-27.094940185546875,-40.69535827636719,2023-09-09 22:05:23.7540,1694315123.7542381,-3.4558966159820557,0.743939995765686,-1.9225013256072998,0.0002746051177382469,0.5908812880516052,-0.9565887451171875,
0,2023-09-09 22:05:21.6090,02:37,10,1,2023-09-09 22:05:24.2100,1694315124.210259,-0.0001347559446003288,-0.0006018743733875453,-0.006192381959408522,0.0265655517578125,-0.054168701171875,-1.0004119873046875,108.4017333984375,-27.053802490234375,-40.56233215332031,2023-09-09 22:05:23.8540,1694315123.854055,-2.219367504119873,-0.11172806471586227,-1.0705115795135498,-0.09022525139153004,0.7768401503562927,-0.6984710693359375,
0,2023-09-09 22:05:21.6090,02:37,10,1,2023-09-09 22:05:24.3090,1694315124.3094049,-0.0010045443195849657,-0.004408863373100758,-0.0032892702147364616,0.0276336669921875,-0.0521392822265625,-1.001251220703125,108.24031066894531,-26.84112548828125,-40.89884948730469,2023-09-09 22:05:23.9540,1694315123.95406,-2.5193092823028564,0.0882047638297081,0.05421491339802742,-0.002288859337568283,0.3109282851219177,-0.4685973525047302,
0,2023-09-09 22:05:21.6090,02:37,10,1,2023-09-09 22:05:24.4080,1694315124.408156,-0.0009046758059412241,-0.004662662278860807,-0.0032951291650533676,0.0255279541015625,-0.0528564453125,-1.000579833984375,108.23562622070312,-26.647842407226562,-40.909942626953125,2023-09-09 22:05:24.0540,1694315124.053887,0.43526989221572876,-0.8030152916908264,-0.6234739422798157,0.03935235319659114,0.5837554335594177,-0.6026000380516052,
0,2023-09-09 22:05:21.6090,02:37,10,1,2023-09-09 22:05:24.5100,1694315124.50987,0.00024740767548792064,-0.004249872639775276,-0.0016753945965319872,0.0253753662109375,-0.0516510009765625,-1.000274658203125,108.25956726074219,-26.748504638671875,-40.908538818359375,2023-09-09 22:05:24.1540,1694315124.153819,-1.282920002937317,-0.6164559125900269,0.7670984268188477,0.015563905239105225,0.8068541288375854,-0.4497833847999573,
0,2023-09-09 22:05:21.6090,02:37,10,1,2023-09-09 22:05:24.6110,1694315124.6108088,-0.001290834159590304,-0.0018271948210895061,-0.005628857295960188,0.02581787109375,-0.051239013671875,-0.99835205078125,108.30470275878906,-26.776138305664062,-40.962615966796875,2023-09-09 22:05:24.2540,1694315124.253541,-0.41975337266921997,-0.168416365981102,0.3717820644378662,0.02413935214281082,0.7014922499656677,-0.5672455430030823,
0,2023-09-09 22:05:21.6090,02:37,10,1,2023-09-09 22:05:24.7100,1694315124.71029,1.3315805517777335e-05,-0.0036567864008247852,-0.004259459674358368,0.02777099609375,-0.050384521484375,-0.99957275390625,108.50804138183594,-27.093429565429688,-40.73193359375,2023-09-09 22:05:24.3530,1694315124.3532581,-1.0875253677368164,0.04965563863515854,-0.0622103288769722,0.09042354673147202,0.8105773329734802,-0.472686767578125,
0,2023-09-09 22:05:21.6090,02:37,10,1,2023-09-09 22:05:24.8090,1694315124.8093538,-0.001570998691022396,-0.0026112294290214777,-0.0010881676571443677,0.02783203125,-0.051361083984375,-1.0024261474609375,108.36233520507812,-26.9166259765625,-41.190826416015625,2023-09-09 22:05:24.4690,1694315124.468781,-0.8855462074279785,0.014051971957087517,-0.03758031874895096,0.07402031123638153,0.9030759930610657,-0.382415771484375,
0,2023-09-09 22:05:21.6090,02:37,10,1,2023-09-09 22:05:24.9090,1694315124.909402,0.002270344877615571,-0.005780923645943403,0.00022956448083277792,0.0229644775390625,-0.052215576171875,-1.00054931640625,108.42970275878906,-27.12591552734375,-40.689239501953125,2023-09-09 22:05:24.5530,1694315124.553221,0.03956170752644539,-0.0009119315072894096,-0.007212328724563122,0.08599846810102463,0.9825133085250854,-0.2978821396827698,
0,2023-09-09 22:05:21.6090,02:37,10,1,2023-09-09 22:05:25.0100,1694315125.0102491,-0.00018508969515096396,-0.007741542998701334,-0.0019057580502703786,0.0269317626953125,-0.0516357421875,-1.0024261474609375,108.41279602050781,-26.722061157226562,-40.490509033203125,2023-09-09 22:05:24.6530,1694315124.6530561,0.2593271732330322,-0.02984464541077614,0.05167106166481972,0.08943169564008713,0.9154662489891052,-0.3397064507007599,
0,2023-09-09 22:05:21.6090,02:37,10,1,2023-09-09 22:05:25.1100,1694315125.1102772,-0.003058107802644372,-0.005861883983016014,-0.0009925601771101356,0.0270233154296875,-0.0514373779296875,-1.0006866455078125,108.35539245605469,-26.614639282226562,-40.74272155761719,2023-09-09 22:05:24.7530,1694315124.752559,-0.002394795650616288,-0.008842824026942253,0.02461244724690914,0.08689875155687332,0.892745852470398,-0.37088021636009216,
0,2023-09-09 22:05:21.6090,02:37,10,1,2023-09-09 22:05:25.2100,1694315125.210237,-0.0005656554130837321,-0.0041763694025576115,-0.004338023252785206,0.0250701904296875,-0.051605224609375,-0.9988250732421875,108.30752563476562,-26.787704467773438,-40.69337463378906,2023-09-09 22:05:24.8520,1694315124.852474,0.054673418402671814,-0.035333022475242615,0.0020247793290764093,0.09803766757249832,0.9447021484375,-0.35534676909446716,
0,2023-09-09 22:05:21.6090,02:37,10,1,2023-09-09 22:05:25.3100,1694315125.309634,-0.002332396572455764,-0.0030024477746337652,-0.0035145736765116453,0.02587890625,-0.0524749755859375,-1.0016937255859375,108.229248046875,-27.0086669921875,-40.79701232910156,2023-09-09 22:05:24.9520,1694315124.952357,0.06969870626926422,-0.008368782699108124,0.004189929459244013,0.08937068283557892,0.935211181640625,-0.3599548935890198,
0,2023-09-09 22:05:21.6090,02:37,10,1,2023-09-09 22:05:25.4090,1694315125.40938,-0.0009624664089642465,-0.004025634378194809,-0.0028546424582600594,0.024810791015625,-0.0521697998046875,-1.0010528564453125,108.35101318359375,-26.65985107421875,-40.60169982910156,2023-09-09 22:05:25.0530,1694315125.0525289,0.09147284179925919,-0.01640247367322445,0.012126483023166656,0.09336849302053452,0.9270476698875427,-0.3661804795265198,
0,2023-09-09 22:05:21.6090,02:37,10,1,2023-09-09 22:05:25.5090,1694315125.509139,-0.0015691345324739814,-0.003966778516769409,-0.0037084517534822226,0.0264892578125,-0.05230712890625,-0.9987945556640625,108.4822998046875,-26.967849731445312,-40.61248779296875,2023-09-09 22:05:25.1520,1694315125.1523108,-0.017175205051898956,0.020370986312627792,0.026376325637102127,0.08917229622602463,0.9125669598579407,-0.378662109375,
0,2023-09-09 22:05:21.6090,02:37,10,1,2023-09-09 22:05:25.6090,1694315125.609189,0.0006641923682764173,-0.005028847139328718,-0.003650128608569503,0.02728271484375,-0.050750732421875,-1.001251220703125,108.33934020996094,-26.649017333984375,-41.105865478515625,2023-09-09 22:05:25.2520,1694315125.251993,0.024146268144249916,-0.011105712503194809,-0.0071458821184933186,0.09594720602035522,0.9234160780906677,-0.3732452988624573,
0,2023-09-09 22:05:21.6090,02:37,10,1,2023-09-09 22:05:25.7080,1694315125.708369,-0.004270378965884447,-0.001990979304537177,-0.0025712819769978523,0.025146484375,-0.0500335693359375,-0.99957275390625,108.42259216308594,-26.921173095703125,-40.74043273925781,2023-09-09 22:05:25.3520,1694315125.351975,0.10976710170507431,-0.027124758809804916,0.011140347458422184,0.09452814608812332,0.9192350506782532,-0.376190185546875,
0,2023-09-09 22:05:21.6090,02:37,10,1,2023-09-09 22:05:25.8080,1694315125.807613,-0.0001757686259225011,-0.004062918480485678,-0.0016346483025699854,0.024017333984375,-0.0500335693359375,-0.9981536865234375,108.28689575195312,-26.83428955078125,-40.81474304199219,2023-09-09 22:05:25.4510,1694315125.451452,-0.056148968636989594,0.007304453290998936,0.0066429669968783855,0.09220879524946213,0.9198150038719177,-0.3831329941749573,
0,2023-09-09 22:05:21.6090,02:37,10,1,2023-09-09 22:05:25.9090,1694315125.9093208,-0.003440005239099264,-0.003941478207707405,-0.000313986703986302,0.0257568359375,-0.0494232177734375,-0.999298095703125,108.29576110839844,-26.622940063476562,-41.05357360839844,2023-09-09 22:05:25.5510,1694315125.551352,-0.05908757075667381,0.019043801352381706,0.02440788224339485,0.09776301681995392,0.911605715751648,-0.3753052353858948,
0,2023-09-09 22:05:21.6090,02:37,10,1,2023-09-09 22:05:26.0100,1694315126.0102491,-0.004312190227210522,-0.0024802018888294697,0.0002479403046891093,0.02349853515625,-0.0491943359375,-0.9989471435546875,108.23771667480469,-26.66290283203125,-41.10792541503906,2023-09-09 22:05:25.6510,1694315125.651243,0.02713267132639885,-0.018614627420902252,-0.024511391296982765,0.09655755013227463,0.9177855253219604,-0.3782806992530823,
0,2023-09-09 22:05:21.6090,02:37,10,1,2023-09-09 22:05:26.1090,1694315126.10919,-7.696535612922162e-05,-0.0054184673354029655,-0.0020937772933393717,0.0240325927734375,-0.051116943359375,-0.9989166259765625,108.31321716308594,-26.751419067382812,-40.95170593261719,2023-09-09 22:05:25.7510,1694315125.751072,-0.010332880541682243,-0.003759116865694523,0.009343745186924934,0.09443660825490952,0.9175719618797302,-0.3791809678077698,
0,2023-09-09 22:05:21.6090,02:37,10,1,2023-09-09 22:05:26.2090,1694315126.209163,0.0016202671686187387,-0.005329518113285303,-0.0036671727430075407,0.0262908935546875,-0.05120849609375,-0.999420166015625,108.27909851074219,-26.698287963867188,-41.04118347167969,2023-09-09 22:05:25.8510,1694315125.850934,0.022131917998194695,-0.011311708018183708,-0.007634871639311314,0.09422297775745392,0.9264525771141052,-0.3730011582374573,
0,2023-09-09 22:05:21.6090,02:37,10,1,2023-09-09 22:05:26.3080,1694315126.307849,-0.0009685916593298316,-0.0037294907961040735,6.817692337790504e-05,0.0263214111328125,-0.0530548095703125,-1.0028533935546875,108.32789611816406,-26.820098876953125,-40.809051513671875,2023-09-09 22:05:25.9510,1694315125.951033,-0.0035619258414953947,0.004446881823241711,-0.0030092608649283648,0.09509270638227463,0.9256590008735657,-0.3755035102367401,
0,2023-09-09 22:05:21.6090,02:37,10,1,2023-09-09 22:05:26.4100,1694315126.410394,4.261057711119065e-06,-0.0065045044757425785,-0.004637362435460091,0.0254364013671875,-0.05548095703125,-1.002349853515625,108.40086364746094,-26.768783569335938,-40.453460693359375,2023-09-09 22:05:26.0510,1694315126.051105,0.02303359843790531,-0.004666987806558609,-0.005412164609879255,0.09461970627307892,0.920059084892273,-0.3770599365234375,
0,2023-09-09 22:05:21.6090,02:37,10,1,2023-09-09 22:05:26.5090,1694315126.5091581,0.0015584818320348859,-0.005275455769151449,-0.0016674051294103265,0.025421142578125,-0.05535888671875,-1.0029754638671875,108.40327453613281,-26.846282958984375,-40.68077087402344,2023-09-09 22:05:26.1510,1694315126.150589,-0.009153232909739017,-0.003613707609474659,-0.013560705818235874,0.09281916916370392,0.9160003066062927,-0.3809509575366974,
0,2023-09-09 22:05:21.6090,02:37,10,1,2023-09-09 22:05:26.6100,1694315126.610323,-0.001493500778451562,-0.0030133668333292007,-0.005007808096706867,0.0263824462890625,-0.053619384765625,-1.004058837890625,108.3436279296875,-26.824066162109375,-40.44215393066406,2023-09-09 22:05:26.2500,1694315126.2503328,0.0018116672290489078,0.007381685543805361,0.0018721137894317508,0.09107964485883713,0.9240721464157104,-0.3790435791015625,
0,2023-09-09 22:05:21.6090,02:37,10,1,2023-09-09 22:05:26.7100,1694315126.709621,-0.0021576930303126574,-0.007763380650430918,-0.001743305241689086,0.0276947021484375,-0.0545806884765625,-1.00244140625,108.52879333496094,-26.922775268554688,-40.20121765136719,2023-09-09 22:05:26.3500,1694315126.350143,-0.003682034322991967,-0.014158493839204311,-0.014289346523582935,0.09223934262990952,0.913833498954773,-0.3801727890968323,
0,2023-09-09 22:05:21.6090,02:37,10,1,2023-09-09 22:05:26.8100,1694315126.810011,0.001704689348116517,-0.005717806983739138,-0.0027116306591778994,0.024993896484375,-0.054290771484375,-1.000518798828125,108.38398742675781,-26.639175415039062,-40.856201171875,2023-09-09 22:05:26.4500,1694315126.449961,0.007147510070353746,0.00101366825401783,0.010376952588558197,0.09071344137191772,0.9246671795845032,-0.3774414360523224,
0,2023-09-09 22:05:21.6090,02:37,10,1,2023-09-09 22:05:26.9090,1694315126.909024,-0.0002892192860599607,-0.005452556069940329,-0.004201136529445648,0.0257110595703125,-0.0538787841796875,-1.0020294189453125,108.3387451171875,-26.789642333984375,-40.727813720703125,2023-09-09 22:05:26.5500,1694315126.549803,-0.009007090702652931,0.003140202257782221,-0.007002238184213638,0.09230034798383713,0.9192809462547302,-0.377777099609375,
0,2023-09-09 22:05:21.6090,02:37,10,1,2023-09-09 22:05:27.0100,1694315127.0103688,0.0014559502014890313,-0.0029851372819393873,-0.0018282600212842226,0.0247344970703125,-0.052276611328125,-0.9987945556640625,108.35905456542969,-26.988937377929688,-40.642730712890625,2023-09-09 22:05:26.6500,1694315126.649602,-0.003621181007474661,0.004401874728500843,0.003455496160313487,0.09381097555160522,0.9169158339500427,-0.3798523247241974,
0,2023-09-09 22:05:21.6090,02:37,10,1,2023-09-09 22:05:27.1090,1694315127.109268,-0.0036448021419346333,-0.0034200313966721296,-0.0023989754263311625,0.0252532958984375,-0.052093505859375,-0.996490478515625,108.28564453125,-26.811569213867188,-40.63848876953125,2023-09-09 22:05:26.7500,1694315126.749505,-0.012668471783399582,-0.0004445454105734825,-0.0022685693111270666,0.09288019686937332,0.9256134033203125,-0.37377941608428955,
0,2023-09-09 22:05:21.6090,02:37,10,1,2023-09-09 22:05:27.2090,1694315127.208914,-0.0037004624027758837,-0.000928111607208848,-0.0030951257795095444,0.025482177734375,-0.0513916015625,-0.99920654296875,108.24870300292969,-26.593856811523438,-40.58787536621094,2023-09-09 22:05:26.8500,1694315126.849524,0.006025387439876795,-0.006456498987972736,-0.009902154095470905,0.09548943489789963,0.9193419218063354,-0.3761596977710724,
0,2023-09-09 22:05:21.6090,02:37,10,1,2023-09-09 22:05:27.3100,1694315127.309593,0.0008868326549418271,-0.004229099955409765,-0.0010391654213890433,0.0272216796875,-0.04962158203125,-0.99957275390625,108.5194091796875,-26.864059448242188,-41.031158447265625,2023-09-09 22:05:26.9490,1694315126.94906,0.003994793631136417,0.00417284294962883,0.005995019804686308,0.09069816768169403,0.9152372479438782,-0.375823974609375,
0,2023-09-09 22:05:21.6090,02:37,10,1,2023-09-09 22:05:27.4100,1694315127.410211,0.0008820389630272985,-0.003996339626610279,-0.0008817726047709584,0.0245208740234375,-0.04998779296875,-0.9970855712890625,108.28799438476562,-26.865798950195312,-40.7547607421875,2023-09-09 22:05:27.0490,1694315127.0491118,0.017256002873182297,-0.011406917124986649,-0.009121614508330822,0.09118647873401642,0.916671633720398,-0.3789215087890625,
0,2023-09-09 22:05:21.6090,02:37,10,1,2023-09-09 22:05:27.5110,1694315127.5105581,-0.001496430253610015,-0.005262938793748617,-0.004735632799565792,0.0246124267578125,-0.0496978759765625,-0.9994049072265625,108.35630798339844,-26.692214965820312,-40.893280029296875,2023-09-09 22:05:27.1490,1694315127.1488218,0.008854929357767105,0.006971025839447975,0.013751276768743992,0.08940118551254272,0.9220274686813354,-0.3773499131202698,
0,2023-09-09 22:05:21.6090,02:37,10,1,2023-09-09 22:05:27.6090,1694315127.6093678,-0.004093278665095568,-0.0037875475827604532,-0.0033952640369534492,0.0265655517578125,-0.050537109375,-1.00018310546875,108.36065673828125,-26.908706665039062,-41.07289123535156,2023-09-09 22:05:27.2490,1694315127.248584,0.04575049504637718,-0.00479402020573616,0.0007131726597435772,0.09579462558031082,0.9260100722312927,-0.3764343857765198,
0,2023-09-09 22:05:21.6090,02:37,10,1,2023-09-09 22:05:27.7090,1694315127.709352,-0.00013875069271307439,-0.004988633096218109,-0.0020218719728291035,0.0257720947265625,-0.051666259765625,-1.000152587890625,108.33724975585938,-26.78515625,-40.59931945800781,2023-09-09 22:05:27.3480,1694315127.348452,-0.004459078423678875,0.00101446732878685,0.00883524864912033,0.09527581185102463,0.925125002861023,-0.3797149956226349,
0,2023-09-09 22:05:21.6090,02:37,10,1,2023-09-09 22:05:27.8090,1694315127.808831,-0.0022391858510673046,-0.007700263988226652,-0.003099386813119054,0.025604248046875,-0.0508880615234375,-1.0000152587890625,108.38345336914062,-27.049026489257812,-40.89656066894531,2023-09-09 22:05:27.4480,1694315127.4482942,0.026303628459572792,-0.010668021626770496,-0.009248548187315464,0.09545891731977463,0.9180601835250854,-0.3798828721046448,
0,2023-09-09 22:05:21.6090,02:37,10,1,2023-09-09 22:05:27.9090,1694315127.9092422,0.0005486111622303724,-0.004661597311496735,-0.006299973931163549,0.0270843505859375,-0.0516204833984375,-1.0001678466796875,108.34529113769531,-26.909591674804688,-40.58818054199219,2023-09-09 22:05:27.5490,1694315127.5494099,-0.0007241282146424055,-0.0018673399463295937,-0.0009239724022336304,0.09332267940044403,0.9177550673484802,-0.3830108940601349,
0,2023-09-09 22:05:21.6090,02:37,10,1,2023-09-09 22:05:28.0100,1694315128.009795,-0.0007840346079319715,-0.003865045728161931,-0.00577905960381031,0.0244903564453125,-0.050750732421875,-0.9993438720703125,108.21969604492188,-26.923751831054688,-40.3248291015625,2023-09-09 22:05:27.6480,1694315127.647932,-0.007174637168645859,0.004805343225598335,0.007787926588207483,0.09216303378343582,0.9158934950828552,-0.3832550346851349,
0,2023-09-09 22:05:21.6090,02:37,10,1,2023-09-09 22:05:28.1090,1694315128.109181,-0.0003539340978022665,-0.005514874123036861,-0.003281813347712159,0.0265655517578125,-0.0500946044921875,-1.000640869140625,108.29487609863281,-26.894210815429688,-40.18659973144531,2023-09-09 22:05:27.7480,1694315127.748126,0.002437709830701351,-0.005568068474531174,0.00013296963879838586,0.09635919332504272,0.924941897392273,-0.3812408447265625,
0,2023-09-09 22:05:21.6090,02:37,10,1,2023-09-09 22:05:28.2100,1694315128.2101479,-0.00358781055547297,-0.004289287142455578,-0.003629089565947652,0.0258026123046875,-0.0513153076171875,-0.9991607666015625,108.39057922363281,-27.027572631835938,-40.40394592285156,2023-09-09 22:05:27.8480,1694315127.847753,-0.014709251932799816,0.004645553417503834,0.006086832378059626,0.08930965512990952,0.9129942655563354,-0.3853912949562073,
0,2023-09-09 22:05:21.6090,02:37,10,1,2023-09-09 22:05:28.3230,1694315128.3229198,-0.0029313412960618734,-0.0020538298413157463,-0.002700445242226124,0.028076171875,-0.0505218505859375,-1.00018310546875,108.37590026855469,-26.695556640625,-40.38288879394531,2023-09-09 22:05:27.9480,1694315127.947536,-0.01426989771425724,0.003151919227093458,0.004608012270182371,0.09439082443714142,0.9150390028953552,-0.3840027153491974,
0,2023-09-09 22:05:21.6090,02:37,10,1,2023-09-09 22:05:28.4220,1694315128.421602,-0.002175003755837679,-0.002019741339609027,-0.004326571244746447,0.025482177734375,-0.05096435546875,-0.9982452392578125,108.50895690917969,-26.81329345703125,-40.15873718261719,2023-09-09 22:05:28.0480,1694315128.047535,-0.0050755334086716175,0.0008960887789726257,0.0126583157107234,0.09803766757249832,0.909072756767273,-0.38365182280540466,
0,2023-09-09 22:05:21.6090,02:37,10,1,2023-09-09 22:05:28.5100,1694315128.510328,-0.002029062481597066,-0.008015582337975502,-0.0022301310673356056,0.02496337890625,-0.0503387451171875,-0.9991455078125,108.38690185546875,-27.060928344726562,-40.49882507324219,2023-09-09 22:05:28.1470,1694315128.147276,-0.00312130618840456,-0.005703223869204521,-0.0074492162093520164,0.09994500875473022,0.9194334745407104,-0.378692626953125,
0,2023-09-09 22:05:21.6090,02:37,10,1,2023-09-09 22:05:28.6230,1694315128.623214,-0.0011792477453127503,-0.004207794554531574,-0.0035113778430968523,0.02667236328125,-0.0499725341796875,-0.9990081787109375,108.198974609375,-26.619384765625,-40.87677001953125,2023-09-09 22:05:28.2470,1694315128.247112,0.0026431726291775703,-0.001032971777021885,-0.0057810451835393906,0.09719842672348022,0.9149779081344604,-0.38375863432884216,
0,2023-09-09 22:05:21.6090,02:37,10,1,2023-09-09 22:05:28.7100,1694315128.710129,-0.002460228279232979,-0.006902647204697132,-0.0029047098942101,0.0256500244140625,-0.049774169921875,-0.99835205078125,108.27510070800781,-26.645034790039062,-40.844268798828125,2023-09-09 22:05:28.3470,1694315128.3471,-0.0012401819694787264,-0.0016022222116589546,-0.007153538521379232,0.09594720602035522,0.9191434979438782,-0.381195068359375,
0,2023-09-09 22:05:21.6090,02:37,10,1,2023-09-09 22:05:28.8100,1694315128.809917,-0.00015526228526141495,-0.002205097349360585,-0.002689260058104992,0.0259552001953125,-0.0508575439453125,-0.9983367919921875,108.27256774902344,-26.658523559570312,-40.80816650390625,2023-09-09 22:05:28.4470,1694315128.446779,0.005976252257823944,0.002509831916540861,0.007203262764960527,0.09725944697856903,0.9122465252876282,-0.3844452202320099,
0,2023-09-09 22:05:21.6090,02:37,10,1,2023-09-09 22:05:28.9090,1694315128.909285,0.0006697850185446441,-0.004062918480485678,-0.0034080471377819777,0.02642822265625,-0.0523529052734375,-0.998809814453125,108.26907348632812,-26.694747924804688,-41.112091064453125,2023-09-09 22:05:28.5470,1694315128.546812,0.012072360143065453,-0.004312122240662575,-0.011259833350777626,0.09556573629379272,0.9135740399360657,-0.3844147026538849,
0,2023-09-09 22:05:21.6090,02:37,10,1,2023-09-09 22:05:29.0090,1694315129.009006,-0.0011496866354718804,-0.003165166825056076,-0.004295945167541504,0.02532958984375,-0.051605224609375,-0.9980621337890625,108.23410034179688,-26.802642822265625,-41.23371887207031,2023-09-09 22:05:28.6460,1694315128.6463041,0.022386718541383743,0.011943147517740726,0.00820750743150711,0.09437554329633713,0.9173887968063354,-0.3846435844898224,
0,2023-09-09 22:05:21.6090,02:37,10,1,2023-09-09 22:05:29.1090,1694315129.109266,0.00015712650201749057,-0.0034708979073911905,-0.00589517317712307,0.0265350341796875,-0.0519866943359375,-1.0,108.18461608886719,-26.702865600585938,-41.295135498046875,2023-09-09 22:05:28.7460,1694315128.746213,-0.001328798709437251,-0.007840278558433056,-0.006593642756342888,0.09780880063772202,0.9091948866844177,-0.3926086723804474,
0,2023-09-09 22:05:21.6090,02:37,10,1,2023-09-09 22:05:29.2110,1694315129.210719,-0.0008567389450035989,-0.0032828785479068756,-0.002238120650872588,0.0255584716796875,-0.051910400390625,-1.00067138671875,108.31622314453125,-26.799530029296875,-41.395843505859375,2023-09-09 22:05:28.8460,1694315128.846095,-0.032451629638671875,0.004821055568754673,0.012636544182896614,0.09642022103071213,0.917983889579773,-0.3880921006202698,
0,2023-09-09 22:05:21.6090,02:37,10,1,2023-09-09 22:05:29.3100,1694315129.3102689,-0.0031902005430310965,-0.006280266214162111,-0.003460777923464775,0.026275634765625,-0.0511474609375,-0.999664306640625,108.34028625488281,-26.622177124023438,-40.89662170410156,2023-09-09 22:05:28.9460,1694315128.94587,-0.014353188686072826,-0.006346910260617733,-0.0034836363047361374,0.09899894148111343,0.9168546795845032,-0.3860168755054474,
0,2023-09-09 22:05:21.6090,02:37,10,1,2023-09-09 22:05:29.4090,1694315129.409274,-0.0021076255943626165,-0.006268016062676907,-0.0028842033352702856,0.0233612060546875,-0.0496826171875,-0.9958648681640625,108.30487060546875,-26.6954345703125,-41.03065490722656,2023-09-09 22:05:29.0460,1694315129.046012,0.009281634353101254,-0.005853293463587761,0.005559759680181742,0.09465020895004272,0.9182738065719604,-0.3851165771484375,
0,2023-09-09 22:05:21.6090,02:37,10,1,2023-09-09 22:05:29.5090,1694315129.509165,-0.0004953479510731995,-0.0025979136116802692,-0.004321511369198561,0.02532958984375,-0.05023193359375,-0.9986572265625,108.34605407714844,-26.95477294921875,-40.838043212890625,2023-09-09 22:05:29.1460,1694315129.1457958,-0.0033032663632184267,4.214700311422348e-05,-0.004441941622644663,0.09767145663499832,0.914291262626648,-0.383026123046875,
0,2023-09-09 22:05:21.6090,02:37,10,1,2023-09-09 22:05:29.6110,1694315129.610601,-0.002472212305292487,-0.003357979701831937,-0.0023811322171241045,0.0255279541015625,-0.0504913330078125,-0.9994659423828125,108.45547485351562,-26.8250732421875,-40.688385009765625,2023-09-09 22:05:29.2460,1694315129.245584,0.015560302883386612,-0.00650843046605587,-0.001351676182821393,0.09777826070785522,0.9172362089157104,-0.384735107421875,
0,2023-09-09 22:05:21.6090,02:37,10,1,2023-09-09 22:05:29.7090,1694315129.708504,0.0010388991795480251,-0.0046365633606910706,-0.0030189594253897667,0.02716064453125,-0.0509796142578125,-1.00103759765625,108.2904052734375,-26.76861572265625,-40.58689880371094,2023-09-09 22:05:29.3450,1694315129.3452911,-0.011323975399136543,-0.0013521518558263779,-0.007558073382824659,0.09564203023910522,0.9165037870407104,-0.3853455185890198,
0,2023-09-09 22:05:21.6090,02:37,10,1,2023-09-09 22:05:29.8100,1694315129.8100672,0.0003259709046687931,-0.004887166898697615,-0.0036272252909839153,0.0255126953125,-0.0514068603515625,-1.0002899169921875,108.4517822265625,-26.639968872070312,-40.84700012207031,2023-09-09 22:05:29.4450,1694315129.445075,-0.003957339096814394,0.003215835429728031,0.00639099907130003,0.09518425166606903,0.9172361493110657,-0.38299560546875,
0,2023-09-09 22:05:21.6090,02:37,10,1,2023-09-09 22:05:29.9100,1694315129.9099588,-0.0003150519623886794,-0.004503405187278986,-0.0009446232579648495,0.02496337890625,-0.05194091796875,-0.999114990234375,108.29562377929688,-26.7310791015625,-40.49540710449219,2023-09-09 22:05:29.5450,1694315129.544977,0.00222012959420681,-0.0008175214752554893,0.0003485525376163423,0.09547416120767593,0.9205473065376282,-0.38037109375,
0,2023-09-09 22:05:21.6090,02:37,10,1,2023-09-09 22:05:30.0080,1694315130.008494,-0.003272492438554764,-0.005066663958132267,-0.003498594742268324,0.025482177734375,-0.05279541015625,-1.000640869140625,108.29562377929688,-26.7310791015625,-40.49540710449219,2023-09-09 22:05:29.6450,1694315129.644772,-0.006915444508194923,0.004919725935906172,0.0034667812287807465,0.09596245735883713,0.9169004559516907,-0.3816986382007599,
0,2023-09-09 22:05:21.6090,02:37,10,1,2023-09-09 22:05:30.1090,1694315130.108532,0.0005193164106458426,-0.0017321199411526322,-0.004667456261813641,0.0284423828125,-0.051513671875,-1.0015716552734375,108.39952087402344,-26.85693359375,-40.49620056152344,2023-09-09 22:05:29.7450,1694315129.744697,-0.019249077886343002,-0.001261204481124878,-0.018501367419958115,0.09826653450727463,0.9166869521141052,-0.3807220757007599,
0,2023-09-09 22:05:21.6090,02:37,10,1,2023-09-09 22:05:30.2100,1694315130.2097092,0.0015393070643767715,-0.005982525181025267,-0.0011773834703490138,0.0232696533203125,-0.05072021484375,-0.998291015625,108.29916381835938,-26.801605224609375,-40.79640197753906,2023-09-09 22:05:29.8440,1694315129.844492,0.00953463464975357,0.00032310932874679565,-0.0022073497530072927,0.09414667636156082,0.911331057548523,-0.3828125298023224,
0,2023-09-09 22:05:21.6090,02:37,10,1,2023-09-09 22:05:30.3100,1694315130.310052,-0.0016168050933629274,-0.00387276872061193,-0.003425357863306999,0.02703857421875,-0.0510406494140625,-0.9994354248046875,108.1954345703125,-26.794204711914062,-40.785369873046875,2023-09-09 22:05:29.9440,1694315129.944391,-0.008689843118190765,0.00032590702176094055,-0.007367124315351248,0.09530632197856903,0.9189298748970032,-0.3808441460132599,
0,2023-09-09 22:05:21.6090,02:37,10,1,2023-09-09 22:05:30.4080,1694315130.407588,-0.0007209177128970623,-0.0036013927310705185,-0.002657035831362009,0.025146484375,-0.05059814453125,-1.0000762939453125,108.33013916015625,-27.098907470703125,-40.72271728515625,2023-09-09 22:05:30.0440,1694315130.044363,0.0018462883308529854,0.0010739886201918125,0.003179592778906226,0.09374992549419403,0.9123381972312927,-0.3841095566749573,
0,2023-09-09 22:05:21.6090,02:37,10,1,2023-09-09 22:05:30.5080,1694315130.508393,-0.0031675638165324926,-0.006934871431440115,-0.003288205014541745,0.025665283203125,-0.0518341064453125,-0.9993133544921875,108.30099487304688,-26.6829833984375,-40.57667541503906,2023-09-09 22:05:30.1440,1694315130.1440902,-0.0067766280844807625,-0.00756397470831871,-0.014859129674732685,0.09346000105142593,0.9159849882125854,-0.3830261528491974,
0,2023-09-09 22:05:21.6090,02:37,10,1,2023-09-09 22:05:30.6100,1694315130.610014,-0.004493818152695894,-0.008471248671412468,-0.002630137838423252,0.0237579345703125,-0.0511322021484375,-0.998992919921875,108.320556640625,-26.59228515625,-40.748565673828125,2023-09-09 22:05:30.2440,1694315130.243803,0.022925008088350296,-0.007422694005072117,-0.011060229502618313,0.09458917379379272,0.916213870048523,-0.3832245171070099,
0,2023-09-09 22:05:21.6090,02:37,10,1,2023-09-09 22:05:30.7100,1694315130.709851,-0.003304982790723443,-0.003150519449263811,-0.004991562571376562,0.0284271240234375,-0.0489349365234375,-0.9979248046875,108.49259948730469,-26.962417602539062,-40.45405578613281,2023-09-09 22:05:30.3440,1694315130.3444362,0.009080366231501102,-0.003452054224908352,-0.009895795956254005,0.09530632197856903,0.9186248183250427,-0.3829193711280823,
0,2023-09-09 22:05:21.6090,02:37,10,1,2023-09-09 22:05:30.8090,1694315130.808629,-0.0016407734947279096,-0.004884237423539162,-0.0018492990639060736,0.0292205810546875,-0.04986572265625,-0.99884033203125,108.42243957519531,-26.879180908203125,-40.75532531738281,2023-09-09 22:05:30.4430,1694315130.4434838,-0.010232212021946907,0.0012231250293552876,0.001857599476352334,0.09451290965080261,0.915664553642273,-0.3845978081226349,
0,2023-09-09 22:05:21.6090,02:37,10,1,2023-09-09 22:05:30.9100,1694315130.910234,-0.001710814656689763,-0.004314321093261242,-0.001657285145483911,0.0244903564453125,-0.0508575439453125,-0.99560546875,108.2794189453125,-26.850265502929688,-40.93302917480469,2023-09-09 22:05:30.5430,1694315130.543499,0.032469045370817184,-0.015123890712857246,-0.019617797806859016,0.09361260384321213,0.916488528251648,-0.3833313286304474,
0,2023-09-09 22:05:21.6090,02:37,10,1,2023-09-09 22:05:31.0100,1694315131.009624,0.0016682040877640247,-0.006600378546863794,-0.005594236310571432,0.0248870849609375,-0.0509033203125,-0.9995269775390625,108.21688842773438,-26.395233154296875,-40.69207763671875,2023-09-09 22:05:30.6430,1694315130.64307,0.004733088426291943,-0.008719121105968952,-0.017022980377078056,0.09030144661664963,0.9133452773094177,-0.3911590874195099,
0,2023-09-09 22:05:21.6090,02:37,10,1,2023-09-09 22:05:31.1100,1694315131.1100202,-0.004034689161926508,-0.004286624025553465,-0.006843258626759052,0.0286712646484375,-0.0499114990234375,-0.9976959228515625,108.39973449707031,-27.058425903320312,-40.307373046875,2023-09-09 22:05:30.7430,1694315130.742995,0.0065847840160131454,-0.005613874644041061,-0.00862683355808258,0.08848565816879272,0.9183958768844604,-0.3850097358226776,
0,2023-09-09 22:05:21.6090,02:37,10,1,2023-09-09 22:05:31.2100,1694315131.209714,-0.001210939371958375,-0.00304612354375422,-0.003379018744453788,0.0268402099609375,-0.05133056640625,-1.0000762939453125,108.49700927734375,-26.707305908203125,-40.46943664550781,2023-09-09 22:05:30.8430,1694315130.843229,0.009368985891342163,-0.0021014316007494926,-0.00894155167043209,0.08772271126508713,0.9161070585250854,-0.3889617919921875,
0,2023-09-09 22:05:21.6090,02:37,10,1,2023-09-09 22:05:31.3100,1694315131.309506,-0.0004825647920370102,-0.004764928016811609,-0.007546599488705397,0.0254669189453125,-0.0486907958984375,-0.9984588623046875,108.36494445800781,-26.703659057617188,-40.63301086425781,2023-09-09 22:05:30.9430,1694315130.942728,-0.0009935067500919104,-0.004157125949859619,-0.002683989005163312,0.08642572164535522,0.9149932265281677,-0.3889008164405823,
0,2023-09-09 22:05:21.6090,02:37,10,1,2023-09-09 22:05:31.4090,1694315131.409471,-0.002573678968474269,-0.002944657113403082,-0.0008817726047709584,0.027130126953125,-0.0458221435546875,-0.996795654296875,108.34724426269531,-26.899215698242188,-40.53704833984375,2023-09-09 22:05:31.0480,1694315131.047523,-0.007998486049473286,-0.001520463265478611,0.004701389465481043,0.08981318026781082,0.9122161269187927,-0.3892822563648224,
0,2023-09-09 22:05:21.6090,02:37,10,1,2023-09-09 22:05:31.5100,1694315131.5095448,-0.0034317492973059416,-0.007672833278775215,-0.003913515247404575,0.0262451171875,-0.0451812744140625,-0.9964599609375,108.34835815429688,-26.562973022460938,-40.72425842285156,2023-09-09 22:05:31.1430,1694315131.142513,-0.01211626548320055,-0.0037599150091409683,-0.011624320410192013,0.08940121531486511,0.912338137626648,-0.3881988823413849,
0,2023-09-09 22:05:21.6090,02:37,10,1,2023-09-09 22:05:31.6080,1694315131.608259,-0.002522279741242528,-0.003950266633182764,-0.003780889790505171,0.024200439453125,-0.046295166015625,-0.996246337890625,108.34220886230469,-26.583282470703125,-40.58740234375,2023-09-09 22:05:31.2420,1694315131.242207,0.005616725422441959,-0.001411672681570053,-0.00022043177159503102,0.08724970370531082,0.9168853163719177,-0.388946533203125,
0,2023-09-09 22:05:21.6090,02:37,10,1,2023-09-09 22:05:31.7100,1694315131.70996,0.002286856295540929,-0.006305566523224115,-0.0008463526028208435,0.0220947265625,-0.052520751953125,-1.000823974609375,108.32063293457031,-26.964889526367188,-40.014617919921875,2023-09-09 22:05:31.3420,1694315131.3421621,-0.0034122562501579523,-0.00018009450286626816,-0.003803948173299432,0.08665461093187332,0.912155032157898,-0.3896637558937073,
0,2023-09-09 22:05:21.6090,02:37,10,1,2023-09-09 22:05:31.8090,1694315131.808841,-0.0010788465151563287,-0.005877596326172352,-0.0038480013608932495,0.0269927978515625,-0.052398681640625,-1.0013427734375,108.41831970214844,-26.571517944335938,-40.70750427246094,2023-09-09 22:05:31.4420,1694315131.4419398,-0.0061319428496062756,-0.0032926639541983604,-0.006708091590553522,0.08807367086410522,0.9130095839500427,-0.3897552788257599,
0,2023-09-09 22:05:21.6090,02:37,10,1,2023-09-09 22:05:31.9090,1694315131.909452,-0.0024346618447452784,-0.0056980992667376995,-0.003326021833345294,0.02691650390625,-0.053466796875,-1.0006103515625,108.32742309570312,-26.647308349609375,-40.562408447265625,2023-09-09 22:05:31.5420,1694315131.541779,0.00043161725625395775,0.007243201602250338,0.012692403979599476,0.08601373434066772,0.9128111004829407,-0.3909454941749573,
0,2023-09-09 22:05:21.6090,02:37,10,1,2023-09-09 22:05:32.0100,1694315132.010227,0.00021544973424170166,-0.003805390791967511,-0.005216067191213369,0.0269775390625,-0.053863525390625,-1.001434326171875,108.42059326171875,-26.561477661132812,-40.86305236816406,2023-09-09 22:05:31.6420,1694315131.641562,-0.00529890600591898,-0.004899082705378532,-0.012845346704125404,0.08476251363754272,0.9141844511032104,-0.3927765488624573,
0,2023-09-09 22:05:21.6090,02:37,10,1,2023-09-09 22:05:32.1090,1694315132.108849,-0.0008399609941989183,-0.005293565336614847,-0.00177952426020056,0.0255279541015625,-0.05291748046875,-1.001708984375,108.4014892578125,-26.834976196289062,-40.746978759765625,2023-09-09 22:05:31.7410,1694315131.74142,0.004899069666862488,-0.0015004901215434074,0.0056197140365839005,0.08726494014263153,0.9170836210250854,-0.38995361328125,
0,2023-09-09 22:05:21.6090,02:37,10,1,2023-09-09 22:05:32.2090,1694315132.209103,-0.0015100123127922416,-0.006517554167658091,-0.0002998719282913953,0.0260772705078125,-0.0530548095703125,-1.0006866455078125,108.28352355957031,-26.8277587890625,-40.88853454589844,2023-09-09 22:05:31.8410,1694315131.8413038,-0.009052099660038948,0.0039213066920638084,0.0006843105657026172,0.08703608065843582,0.9174193143844604,-0.3895111382007599,
0,2023-09-09 22:05:21.6090,02:37,10,1,2023-09-09 22:05:32.3090,1694315132.308991,-0.002243180526420474,-0.003914047963917255,-0.002356098499149084,0.029052734375,-0.05035400390625,-1.0006256103515625,108.34162902832031,-26.735321044921875,-40.58259582519531,2023-09-09 22:05:31.9410,1694315131.941097,-0.016907893121242523,0.004405203275382519,0.006773894652724266,0.08927910774946213,0.9136199355125427,-0.38946542143821716,
0,2023-09-09 22:05:21.6090,02:37,10,1,2023-09-09 22:05:32.4090,1694315132.408527,-0.0021262678783386946,-0.004190217703580856,-0.002841326640918851,0.02569580078125,-0.0502166748046875,-1.000640869140625,108.38177490234375,-26.780136108398438,-40.87181091308594,2023-09-09 22:05:32.0410,1694315132.0410562,-0.0019601676613092422,0.0002827625721693039,-0.002542075701057911,0.08758538216352463,0.9136504530906677,-0.3865662217140198,
0,2023-09-09 22:05:21.6090,02:37,10,1,2023-09-09 22:05:32.5230,1694315132.522609,-0.0003968109958805144,-0.008957276120781898,-0.005350290797650814,0.02484130859375,-0.051361083984375,-1.0002288818359375,108.34365844726562,-26.900665283203125,-40.725311279296875,2023-09-09 22:05:32.1410,1694315132.140839,0.0004297528648748994,-0.0005007386207580566,0.0015365553554147482,0.08726493269205093,0.9161375761032104,-0.3899230659008026,
0,2023-09-09 22:05:21.6090,02:37,10,1,2023-09-09 22:05:32.6090,1694315132.609472,-0.002100967802107334,-0.0059724049642682076,-0.003973170183598995,0.02789306640625,-0.05059814453125,-1.0004730224609375,108.37847900390625,-26.7611083984375,-40.69673156738281,2023-09-09 22:05:32.2410,1694315132.240505,0.000500926049426198,0.001940181478857994,0.01459519937634468,0.08775323629379272,0.914718508720398,-0.3885040581226349,
0,2023-09-09 22:05:21.6090,02:37,10,1,2023-09-09 22:05:32.7100,1694315132.710003,0.000565122754778713,-0.005538309924304485,-0.003466370515525341,0.0243377685546875,-0.0511322021484375,-0.999542236328125,108.46528625488281,-26.922958374023438,-39.62803649902344,2023-09-09 22:05:32.3400,1694315132.3404431,0.011076271533966064,-0.0017891759052872658,-0.005041985306888819,0.08871453255414963,0.9169005155563354,-0.3854675590991974,
0,2023-09-09 22:05:21.6090,02:37,10,1,2023-09-09 22:05:32.8090,1694315132.808772,-0.0007488809060305357,-0.005854959599673748,-0.0034554514568299055,0.02325439453125,-0.0496978759765625,-0.9976806640625,108.29960632324219,-26.5443115234375,-40.64653015136719,2023-09-09 22:05:32.4400,1694315132.4402242,0.0030489719938486814,0.00013389252126216888,0.00487882224842906,0.08947748690843582,0.9206541776657104,-0.3853149116039276,
0,2023-09-09 22:05:21.6090,02:37,10,1,2023-09-09 22:05:32.9100,1694315132.9098082,-0.0007379619055427611,-0.003881557146087289,-0.004732703324407339,0.029327392578125,-0.04925537109375,-1.0016326904296875,108.42878723144531,-26.599288940429688,-40.171875,2023-09-09 22:05:32.5400,1694315132.540134,0.004393002949655056,-0.0019741328433156013,-0.0017689268570393324,0.09088129550218582,0.9225921630859375,-0.38220223784446716,
0,2023-09-09 22:05:21.6090,02:37,10,1,2023-09-09 22:05:33.0100,1694315133.0095592,0.00119575927965343,-0.002126800362020731,-0.0030101709999144077,0.027679443359375,-0.05047607421875,-0.9994354248046875,108.19184875488281,-26.56756591796875,-40.78999328613281,2023-09-09 22:05:32.6400,1694315132.6400208,-0.0007379099261015654,0.003335012122988701,0.013014180585741997,0.09097285568714142,0.9194030165672302,-0.3851624131202698,
0,2023-09-09 22:05:21.6090,02:37,10,1,2023-09-09 22:05:33.1100,1694315133.1100469,-0.0019150790758430958,-0.003605920122936368,-0.002579005202278495,0.0219268798828125,-0.0516815185546875,-0.99755859375,108.39704895019531,-26.620391845703125,-40.86285400390625,2023-09-09 22:05:32.7400,1694315132.7397242,0.008701598271727562,-0.004791490733623505,-0.006997045129537582,0.09063716977834702,0.9199066162109375,-0.38296520709991455,
0,2023-09-09 22:05:21.6090,02:37,10,1,2023-09-09 22:05:33.2100,1694315133.2098389,-0.003650128608569503,-0.0011922972043976188,-0.006898652296513319,0.0256805419921875,-0.0519561767578125,-1.0001220703125,108.41938781738281,-26.842453002929688,-40.69679260253906,2023-09-09 22:05:32.8400,1694315132.83984,-0.004198421724140644,-0.0015654703602194786,-0.0031413536053150892,0.08868403732776642,0.9166411757469177,-0.3871613144874573,
0,2023-09-09 22:05:21.6090,02:37,10,1,2023-09-09 22:05:33.3090,1694315133.309259,-0.003418966196477413,0.0001954760227818042,-0.005046423990279436,0.0280914306640625,-0.05096435546875,-1.0008087158203125,108.56291198730469,-26.826080322265625,-40.75410461425781,2023-09-09 22:05:32.9400,1694315132.93956,0.005003865342587233,-0.0014693308621644974,0.008107705973088741,0.08955376595258713,0.917007327079773,-0.3861236572265625,
0,2023-09-09 22:05:21.6090,02:37,10,1,2023-09-09 22:05:33.4100,1694315133.4102712,-0.003463174682110548,-0.004668254870921373,-0.006943659856915474,0.0229949951171875,-0.051544189453125,-0.9975738525390625,108.30818176269531,-26.974411010742188,-40.722442626953125,2023-09-09 22:05:33.0460,1694315133.045722,0.013274112716317177,-0.0025826646015048027,-0.004131416790187359,0.09008783102035522,0.9184722304344177,-0.3842163681983948,
0,2023-09-09 22:05:21.6090,02:37,10,1,2023-09-09 22:05:33.5100,1694315133.5099869,-0.001731320982798934,-0.004001665860414505,-0.00484322477132082,0.026092529296875,-0.0507965087890625,-0.9963836669921875,108.42839050292969,-26.768295288085938,-40.63774108886719,2023-09-09 22:05:33.1390,1694315133.139308,0.002116199815645814,0.006771821528673172,0.011698178946971893,0.09083551168441772,0.9211729168891907,-0.38458251953125,
0,2023-09-09 22:05:21.6090,02:37,10,1,2023-09-09 22:05:33.6090,1694315133.608564,-0.0030272151343524456,-0.002383262850344181,-0.0032317459117621183,0.0283966064453125,-0.0494384765625,-0.9996795654296875,108.41598510742188,-26.937606811523438,-40.69635009765625,2023-09-09 22:05:33.2390,1694315133.239044,-0.010137736797332764,0.0016192705370485783,0.00035201467107981443,0.09204096347093582,0.9171446561813354,-0.3859558403491974,
0,2023-09-09 22:05:21.6090,02:37,10,1,2023-09-09 22:05:33.7100,1694315133.709719,-0.001678057829849422,-0.005327653605490923,-0.005313272587954998,0.0254669189453125,-0.04852294921875,-0.999114990234375,108.3687744140625,-26.830520629882812,-40.664520263671875,2023-09-09 22:05:33.3390,1694315133.339057,0.002526659518480301,0.0032414025627076626,0.008794101886451244,0.08969110250473022,0.9152524471282959,-0.38531494140625,
0,2023-09-09 22:05:21.6090,02:37,10,1,2023-09-09 22:05:33.8090,1694315133.80858,-0.0035486621782183647,-0.006916761863976717,-0.0041132522746920586,0.0230560302734375,-0.0532379150390625,-0.998870849609375,108.53646850585938,-27.0089111328125,-40.76896667480469,2023-09-09 22:05:33.4390,1694315133.4387221,-0.004530451260507107,0.0018206057138741016,0.004295223858207464,0.09255976974964142,0.9184874296188354,-0.3848419487476349,
0,2023-09-09 22:05:21.6090,02:37,10,1,2023-09-09 22:05:33.9080,1694315133.9084039,-0.0011558119440451264,-0.0014626081101596355,-0.002942793071269989,0.027313232421875,-0.05230712890625,-1.0010986328125,108.44247436523438,-27.0091552734375,-41.07530212402344,2023-09-09 22:05:33.5390,1694315133.538696,0.000345530454069376,-0.0033035827800631523,-0.005034095607697964,0.09303276240825653,0.9120787382125854,-0.3844604790210724,
0,2023-09-09 22:05:21.6090,02:37,10,1,2023-09-09 22:05:34.0100,1694315134.009845,0.0009022789890877903,-0.0034133736044168472,-0.003867708845064044,0.027587890625,-0.0496826171875,-0.999725341796875,108.16264343261719,-26.808181762695312,-40.965179443359375,2023-09-09 22:05:33.6390,1694315133.638503,0.021506674587726593,-0.0037181032821536064,-6.26062392257154e-05,0.08857720345258713,0.9171293377876282,-0.3859253525733948,
0,2023-09-09 22:05:21.6090,02:37,10,1,2023-09-09 22:05:34.1100,1694315134.110363,-0.0007954862085171044,-0.008832107298076153,-0.0031316110398620367,0.0212554931640625,-0.0504913330078125,-0.9953155517578125,108.40237426757812,-27.023147583007812,-40.47178649902344,2023-09-09 22:05:33.7380,1694315133.738291,0.0024154060520231724,-0.003444863483309746,-0.007235097698867321,0.09300226718187332,0.9184417128562927,-0.3849030137062073,
0,2023-09-09 22:05:21.6090,02:37,10,1,2023-09-09 22:05:34.2100,1694315134.2097511,-0.003480485174804926,-0.0011044129496440291,-0.0035350800026208162,0.027008056640625,-0.04705810546875,-0.9992523193359375,108.46003723144531,-26.658050537109375,-40.74848937988281,2023-09-09 22:05:33.8380,1694315133.838076,0.013737102970480919,-0.0008633285760879517,0.00833610538393259,0.09138483554124832,0.9172972440719604,-0.3870850205421448,
0,2023-09-09 22:05:21.6090,02:37,10,1,2023-09-09 22:05:34.3100,1694315134.3101602,-0.0036823528353124857,-0.005461610853672028,-0.003312173532322049,0.030242919921875,-0.0479736328125,-0.9990081787109375,108.35992431640625,-26.8621826171875,-40.8980712890625,2023-09-09 22:05:33.9380,1694315133.9379358,0.008266303688287735,0.005127718672156334,0.0068722316063940525,0.08958427608013153,0.9127805829048157,-0.3920135498046875,
0,2023-09-09 22:05:21.6090,02:37,10,1,2023-09-09 22:05:34.4090,1694315134.408774,-0.0013872405979782343,-0.004059189930558205,-0.0006641923682764173,0.030242919921875,-0.0479736328125,-0.9990081787109375,108.426513671875,-26.896820068359375,-40.42097473144531,2023-09-09 22:05:34.0390,1694315134.0391269,0.004863716661930084,-0.0014311140403151512,0.01124773919582367,0.09442131966352463,0.917877197265625,-0.39039620757102966,
0,2023-09-09 22:05:21.6090,02:37,10,1,2023-09-09 22:05:34.5080,1694315134.508301,-0.0019022959750145674,-0.004771319217979908,-0.003966512158513069,0.02337646484375,-0.051055908203125,-0.9975128173828125,108.61738586425781,-26.844375610351562,-40.449798583984375,2023-09-09 22:05:34.1380,1694315134.137789,0.0037474525161087513,0.0023953160271048546,-0.0006055249250493944,0.09574884921312332,0.9134825468063354,-0.3901825249195099,
0,2023-09-09 22:05:21.6090,02:37,10,1,2023-09-09 22:05:34.6230,1694315134.6232262,-0.0032589102629572153,-0.0034613104071468115,-0.006083192303776741,0.03082275390625,-0.049224853515625,-0.9967498779296875,108.43586730957031,-26.607757568359375,-40.5679931640625,2023-09-09 22:05:34.2370,1694315134.2374601,0.0011264359345659614,8.302554488182068e-05,0.00690868403762579,0.09484857320785522,0.9111632108688354,-0.3916473388671875,
0,2023-09-09 22:05:21.6090,02:37,10,1,2023-09-09 22:05:34.7100,1694315134.709848,-0.0033039175905287266,-0.002207760466262698,0.00017417073831893504,0.03082275390625,-0.049224853515625,-0.9967498779296875,108.25811767578125,-26.642776489257812,-40.656585693359375,2023-09-09 22:05:34.3370,1694315134.337316,0.024957001209259033,-0.014503772370517254,-0.014257354661822319,0.09478753805160522,0.9153135418891907,-0.3943176567554474,
0,2023-09-09 22:05:21.6090,02:37,10,1,2023-09-09 22:05:34.8080,1694315134.808167,-0.00481313094496727,-0.005301821045577526,0.001121723442338407,0.0277252197265625,-0.048065185546875,-0.9970550537109375,108.44639587402344,-26.695404052734375,-40.38029479980469,2023-09-09 22:05:34.4370,1694315134.437222,0.04696795716881752,-0.006800713017582893,-0.011652084067463875,0.09225460141897202,0.9075927138328552,-0.3965149521827698,
0,2023-09-09 22:05:21.6090,02:37,10,1,2023-09-09 22:05:34.9100,1694315134.90971,-0.0034589136485010386,-0.004718055948615074,-0.00177952426020056,0.0227813720703125,-0.04937744140625,-0.9959869384765625,108.33920288085938,-26.809097290039062,-40.65065002441406,2023-09-09 22:05:34.5370,1694315134.537049,0.047142393887043,-0.010009556077420712,-0.01980615220963955,0.08961480110883713,0.899062991142273,-0.4032135307788849,
0,2023-09-09 22:05:21.6090,02:37,10,1,2023-09-09 22:05:35.0100,1694315135.009942,-0.0005896238726563752,-0.003254116512835026,-0.004867193289101124,0.0251922607421875,-0.0510101318359375,-0.99810791015625,108.36260986328125,-27.05291748046875,-40.71815490722656,2023-09-09 22:05:34.6370,1694315134.6368709,0.11929734796285629,-0.03986026346683502,-0.05858953297138214,0.08598321676254272,0.913619875907898,-0.4047088325023651,
0,2023-09-09 22:05:21.6090,02:37,10,1,2023-09-09 22:05:35.1090,1694315135.1087232,-0.003436543047428131,-0.002864762442186475,-0.0013960290234535933,0.0282745361328125,-0.051513671875,-1.0027618408203125,108.391845703125,-26.837875366210938,-40.817596435546875,2023-09-09 22:05:34.7370,1694315134.7367601,0.144019216299057,-0.030782077461481094,-0.0430060438811779,0.08258052170276642,0.9034727811813354,-0.4192047715187073,
0,2023-09-09 22:05:21.6090,02:37,10,1,2023-09-09 22:05:35.2100,1694315135.209867,-0.0012458267156034708,-0.003477022983133793,-0.002776345470920205,0.0276336669921875,-0.0516815185546875,-0.9994659423828125,108.36872863769531,-26.773590087890625,-40.69602966308594,2023-09-09 22:05:34.8370,1694315134.836549,0.16248756647109985,-0.03292778879404068,-0.04280717670917511,0.07112116366624832,0.8990018963813782,-0.4342193603515625,
0,2023-09-09 22:05:21.6090,02:37,10,1,2023-09-09 22:05:35.3100,1694315135.309886,9.906959166983142e-05,-0.005507949739694595,-0.003388339886441827,0.0243988037109375,-0.0527801513671875,-1.00067138671875,108.36344909667969,-26.754486083984375,-40.83714294433594,2023-09-09 22:05:34.9360,1694315134.936414,0.296221524477005,-0.08246791362762451,-0.11001370847225189,0.07020561397075653,0.9013823866844177,-0.4441071152687073,
0,2023-09-09 22:05:21.6090,02:37,10,1,2023-09-09 22:05:35.4090,1694315135.409462,2.50337143370416e-05,-0.003802461316809058,-0.0027441212441772223,0.0240020751953125,-0.0520477294921875,-1.0013275146484375,108.42216491699219,-26.777862548828125,-40.83305358886719,2023-09-09 22:05:35.0470,1694315135.046577,0.8105625510215759,-0.19057294726371765,-0.23984211683273315,0.05206292122602463,0.9105071425437927,-0.477996826171875,
0,2023-09-09 22:05:21.6090,02:37,10,1,2023-09-09 22:05:35.5100,1694315135.509866,-0.001130778226070106,-0.0015630092239007354,-0.0038397456519305706,0.028045654296875,-0.05133056640625,-0.999359130859375,108.49081420898438,-26.842620849609375,-40.44624328613281,2023-09-09 22:05:35.1360,1694315135.136265,1.0776140689849854,-0.22927959263324738,-0.27562588453292847,-0.056732213124632835,1.2350005507469177,-0.614471435546875,
0,2023-09-09 22:05:21.6090,02:37,10,1,2023-09-09 22:05:35.6100,1694315135.6097798,-0.0009843043517321348,-0.004311657976359129,-0.0019097528420388699,0.0291290283203125,-0.049713134765625,-1.0011749267578125,108.47926330566406,-27.124160766601562,-40.57807922363281,2023-09-09 22:05:35.2360,1694315135.2359118,0.9527204036712646,-0.8274967670440674,-0.1255960613489151,0.12609856622293591,0.7725828886032104,-0.4484710097312927,
0,2023-09-09 22:05:21.6090,02:37,10,1,2023-09-09 22:05:35.7100,1694315135.709947,0.0031502533238381147,-0.00603365758433938,-0.0036669063847512007,0.0245208740234375,-0.0527496337890625,-0.99847412109375,108.48869323730469,-27.024429321289062,-40.72471618652344,2023-09-09 22:05:35.3360,1694315135.33565,0.6513687372207642,-0.9090557098388672,-1.0023757219314575,-0.03268437832593918,0.6734771132469177,-0.7391663193702698,
0,2023-09-09 22:05:21.6090,02:37,10,1,2023-09-09 22:05:35.8100,1694315135.80971,-0.0012399677652865648,-0.005398760084062815,-0.002763562137261033,0.022247314453125,-0.0552520751953125,-1.00250244140625,108.37968444824219,-26.824478149414062,-40.66487121582031,2023-09-09 22:05:35.4360,1694315135.435792,0.3739144504070282,-1.160229206085205,0.12455512583255768,0.05459590256214142,0.6361998915672302,-0.6638945937156677,
0,2023-09-09 22:05:21.6090,02:37,10,1,2023-09-09 22:05:35.9090,1694315135.9091148,0.0003539340978022665,-0.002669020090252161,-0.002797118155285716,0.02374267578125,-0.0534820556640625,-0.999969482421875,108.39450073242188,-26.744583129882812,-40.49906921386719,2023-09-09 22:05:35.5360,1694315135.5355039,0.7344297170639038,-0.7323129177093506,-0.5838852524757385,-0.12528997659683228,0.7185668349266052,-0.7381744980812073,
0,2023-09-09 22:05:21.6090,02:37,10,1,2023-09-09 22:05:36.0100,1694315136.010138,-0.0013243899447843432,-0.004775846842676401,-0.0024860608391463757,0.0291290283203125,-0.0523223876953125,-1.0012054443359375,108.48869323730469,-26.9698486328125,-40.602508544921875,2023-09-09 22:05:35.6350,1694315135.635343,0.7396535873413086,-0.6701274514198303,-0.7756690979003906,-0.294342041015625,0.5555266737937927,-0.7091217041015625,
0,2023-09-09 22:05:21.6090,02:37,10,1,2023-09-09 22:05:36.1080,1694315136.10796,-0.0017816547770053148,-0.004280232358723879,-0.0027057717088609934,0.026763916015625,-0.051422119140625,-1.000335693359375,108.24784851074219,-26.996597290039062,-40.33128356933594,2023-09-09 22:05:35.7350,1694315135.735258,-0.43589723110198975,-0.6529983878135681,-0.6230491399765015,-0.5606383979320526,0.7105712294578552,-0.605712890625,
0,2023-09-09 22:05:21.6090,02:37,10,1,2023-09-09 22:05:36.2100,1694315136.2096648,-0.003221625927835703,-0.005124720744788647,-0.0035340148024260998,0.025848388671875,-0.0508880615234375,-1.000701904296875,108.33380126953125,-26.618759155273438,-40.551910400390625,2023-09-09 22:05:35.8350,1694315135.834825,0.1540374904870987,-0.3946111798286438,-0.806283712387085,-0.5456084609031677,0.5060577392578125,-0.6241912841796875,
0,2023-09-09 22:05:21.6090,02:37,10,1,2023-09-09 22:05:36.3090,1694315136.3094,-0.001422128058038652,-0.002840261207893491,-0.004520449787378311,0.02508544921875,-0.0525054931640625,-1.0014801025390625,108.2550048828125,-26.678237915039062,-40.28126525878906,2023-09-09 22:05:35.9350,1694315135.9349089,1.0891926288604736,-0.042524486780166626,-0.10214419662952423,-0.8163146376609802,0.7855376601219177,-0.6728973388671875,
0,2023-09-09 22:05:21.6090,02:37,10,1,2023-09-09 22:05:36.4080,1694315136.407948,-0.004052266012877226,-0.002139317337423563,-0.0024546354543417692,0.025543212890625,-0.04998779296875,-0.997802734375,108.20315551757812,-26.517684936523438,-40.53773498535156,2023-09-09 22:05:36.0350,1694315136.034634,1.290148377418518,0.4695502519607544,0.8603265881538391,-0.58599853515625,0.56695556640625,-0.7861328125,
0,2023-09-09 22:05:21.6090,02:37,10,1,2023-09-09 22:05:36.5090,1694315136.508908,-0.0010729875648394227,-0.005870139691978693,-0.000690291344653815,0.02880859375,-0.0495758056640625,-0.9984130859375,108.35356140136719,-26.588287353515625,-40.66230773925781,2023-09-09 22:05:36.1350,1694315136.134603,2.4365031719207764,0.372599720954895,0.7604708075523376,-0.4867858290672302,0.3818206489086151,-0.7707976698875427,
0,2023-09-09 22:05:21.6090,02:37,10,1,2023-09-09 22:05:36.6100,1694315136.6097531,-0.0018370485631749034,-0.004922853317111731,-0.0029947245493531227,0.025909423828125,-0.049896240234375,-0.99835205078125,108.22637939453125,-26.52069091796875,-40.59880065917969,2023-09-09 22:05:36.2340,1694315136.234402,0.6459472179412842,0.3247029185295105,0.26830166578292847,-0.3377838134765625,0.136688232421875,-0.7473907470703125,
0,2023-09-09 22:05:21.6090,02:37,10,1,2023-09-09 22:05:36.7080,1694315136.707562,-0.0046821036376059055,-0.003031742526218295,-0.003650394966825843,0.0224609375,-0.04949951171875,-0.9970550537109375,108.34085083007812,-26.595321655273438,-40.60589599609375,2023-09-09 22:05:36.3340,1694315136.334231,-1.687993049621582,0.3004782497882843,0.0684555396437645,-0.342376708984375,0.2219696044921875,-0.9211578369140625,
0,2023-09-09 22:05:21.6090,02:37,10,1,2023-09-09 22:05:36.8100,1694315136.8100529,-0.0016530241118744016,-0.003090864745900035,-0.0028786107432097197,0.0272064208984375,-0.0515289306640625,-0.999755859375,108.50778198242188,-26.800994873046875,-40.818084716796875,2023-09-09 22:05:36.4340,1694315136.434084,-1.5974454879760742,0.26825377345085144,-0.07636064291000366,-0.341064453125,0.27093505859375,-0.86041259765625,
0,2023-09-09 22:05:21.6090,02:37,10,1,2023-09-09 22:05:36.9090,1694315136.909081,-0.0004724447790067643,0.00014221279707271606,-0.002416019793599844,0.027130126953125,-0.052154541015625,-1.0005950927734375,108.21134948730469,-26.752243041992188,-40.8515625,2023-09-09 22:05:36.5340,1694315136.533972,-1.1781866550445557,-0.17891882359981537,-0.2255437672138214,-0.29296875,0.11125180125236511,-0.7756499648094177,
0,2023-09-09 22:05:21.6090,02:37,10,1,2023-09-09 22:05:37.0100,1694315137.0095549,-0.0009233179152943194,-0.003888481529429555,-0.0032053806353360415,0.0230865478515625,-0.051910400390625,-0.99853515625,108.36325073242188,-26.765594482421875,-41.05033874511719,2023-09-09 22:05:36.6340,1694315136.63372,0.14396248757839203,0.1313282549381256,-0.003222946310415864,-0.327789306640625,0.4638366401195526,-0.7606200575828552,
0,2023-09-09 22:05:21.6090,02:37,10,1,2023-09-09 22:05:37.1210,1694315137.121155,-0.00077631144085899,-0.005264004226773977,-0.0015456987312063575,0.0261688232421875,-0.0531768798828125,-0.99993896484375,108.40419006347656,-26.836273193359375,-40.70391845703125,2023-09-09 22:05:36.7340,1694315136.733532,0.044701412320137024,0.2523934245109558,0.21969841420650482,-0.3603363335132599,0.4295501410961151,-0.831390380859375,
0,2023-09-09 22:05:21.6090,02:37,10,1,2023-09-09 22:05:37.2100,1694315137.2096992,0.0011153318919241428,-0.006042978726327419,-0.0033244239166378975,0.0266876220703125,-0.0524139404296875,-1.0015106201171875,108.44351196289062,-26.844192504882812,-40.86412048339844,2023-09-09 22:05:36.8330,1694315136.833313,-0.632152259349823,0.10243695974349976,-0.10048577934503555,-0.279327392578125,0.2474059760570526,-0.8183441162109375,
0,2023-09-09 22:05:21.6090,02:37,10,1,2023-09-09 22:05:37.3100,1694315137.309624,-0.000993891735561192,-0.0043619913049042225,-0.004592887591570616,0.0248260498046875,-0.051971435546875,-0.9999542236328125,108.29182434082031,-26.551589965820312,-40.976165771484375,2023-09-09 22:05:36.9330,1694315136.933214,-0.8663321733474731,0.023659326136112213,-0.15094396471977234,-0.3398284912109375,0.4381408393383026,-0.8075103759765625,
0,2023-09-09 22:05:21.6090,02:37,10,1,2023-09-09 22:05:37.4100,1694315137.409534,3.0360035452758893e-05,-0.004580903332680464,-0.002775280037894845,0.02691650390625,-0.0531158447265625,-1.0003509521484375,108.48039245605469,-26.7293701171875,-40.44158935546875,2023-09-09 22:05:37.0410,1694315137.040508,-0.03354379162192345,-0.13402125239372253,0.23871147632598877,-0.2405700385570526,0.6340636610984802,-0.7452392578125,
0,2023-09-09 22:05:21.6090,02:37,10,1,2023-09-09 22:05:37.5100,1694315137.5098171,-0.0024796691723167896,-0.004159324802458286,-0.004322044085711241,0.025360107421875,-0.0512847900390625,-0.9989776611328125,108.45237731933594,-26.825210571289062,-40.262115478515625,2023-09-09 22:05:37.1330,1694315137.133113,1.0370018482208252,0.09761343896389008,-0.03551444038748741,-0.3282471001148224,0.4237670600414276,-0.843353271484375,
0,2023-09-09 22:05:21.6090,02:37,10,1,2023-09-09 22:05:37.6090,1694315137.608756,-0.0014503574930131435,-0.003007774008437991,-0.002749713836237788,0.026031494140625,-0.05126953125,-0.99920654296875,108.40785217285156,-26.80047607421875,-40.49430847167969,2023-09-09 22:05:37.2330,1694315137.232724,1.2525560855865479,0.20970895886421204,0.28909704089164734,-0.334716796875,0.4942931830883026,-0.8498992323875427,
0,2023-09-09 22:05:21.6090,02:37,10,1,2023-09-09 22:05:37.7090,1694315137.7090259,-0.003656253917142749,-0.005548429675400257,-0.0017350494163110852,0.024322509765625,-0.0519256591796875,-0.999114990234375,108.29939270019531,-26.40594482421875,-40.487762451171875,2023-09-09 22:05:37.3320,1694315137.332381,1.6302130222320557,0.21355348825454712,0.6892153024673462,-0.2336578667163849,0.4160919189453125,-0.9288634657859802,
0,2023-09-09 22:05:21.6090,02:37,10,1,2023-09-09 22:05:37.8100,1694315137.81045,-0.0016655409708619118,-0.0036618465092033148,-0.0041212416253983974,0.023468017578125,-0.050079345703125,-0.9985198974609375,108.46556091308594,-26.844711303710938,-40.246734619140625,2023-09-09 22:05:37.4320,1694315137.432189,0.7588245272636414,0.02162453718483448,0.4307185411453247,-0.1549530178308487,0.2072601318359375,-0.929473876953125,
0,2023-09-09 22:05:21.6090,02:37,10,1,2023-09-09 22:05:37.9090,1694315137.909072,-0.0004122573300264776,-0.003460511565208435,-0.0016562198288738728,0.0269927978515625,-0.05145263671875,-0.999481201171875,108.2691650390625,-26.525390625,-40.24418640136719,2023-09-09 22:05:37.5320,1694315137.532248,0.9927118420600891,-0.10621438920497894,0.13108894228935242,-0.238311767578125,0.1702118068933487,-1.024078369140625,
0,2023-09-09 22:05:21.6090,02:37,10,1,2023-09-09 22:05:38.0090,1694315138.009197,0.00012197277828818187,-0.005623531062155962,-0.004553206264972687,0.02618408203125,-0.052459716796875,-1.0023193359375,108.29457092285156,-26.878555297851562,-40.488494873046875,2023-09-09 22:05:37.6320,1694315137.6322641,1.1164660453796387,-0.0663953348994255,0.5121661424636841,-0.2554473876953125,0.07240298390388489,-1.025177001953125,
0,2023-09-09 22:05:21.6090,02:37,10,1,2023-09-09 22:05:38.1080,1694315138.107784,0.00043995422311127186,-0.005142563953995705,-0.0019979034550487995,0.0242462158203125,-0.051727294921875,-0.9998016357421875,108.23150634765625,-26.564346313476562,-40.6370849609375,2023-09-09 22:05:37.7320,1694315137.7319689,0.26861605048179626,-0.20855407416820526,1.0906293392181396,-0.2275543212890625,0.09039310552179813,-0.9728240966796875,
0,2023-09-09 22:05:21.6090,02:37,10,1,2023-09-09 22:05:38.2100,1694315138.21037,-0.002654106356203556,-0.0032261533197015524,-0.0032320122700184584,0.0247344970703125,-0.0536346435546875,-1.00164794921875,108.35523986816406,-26.829986572265625,-40.675811767578125,2023-09-09 22:05:37.8320,1694315137.83175,0.040012381970882416,-0.5653789043426514,1.1687662601470947,-0.2834777534008026,-0.07533259503543377,-0.9134674072265625,
0,2023-09-09 22:05:21.6090,02:37,10,1,2023-09-09 22:05:38.3100,1694315138.309701,-0.002944923471659422,-0.006636597216129303,-0.0032376048620790243,0.025238037109375,-0.0508575439453125,-1.00067138671875,108.35569763183594,-26.840469360351562,-40.67274475097656,2023-09-09 22:05:37.9320,1694315137.932022,1.5481644868850708,-0.6431739926338196,0.07710215449333191,-0.3223418891429901,-0.4835967496037483,-0.946685791015625,
0,2023-09-09 22:05:21.6090,02:37,10,1,2023-09-09 22:05:38.4090,1694315138.409375,0.0023582291323691607,-0.004555070772767067,-0.0015816513914614916,0.0262908935546875,-0.0520172119140625,-0.999755859375,108.25938415527344,-26.526214599609375,-40.70707702636719,2023-09-09 22:05:38.0560,1694315138.055891,1.5436407327651978,-0.6561656594276428,-0.657200276851654,-0.2851409614086151,-0.06355276703834534,-0.8490753173828125,
0,2023-09-09 22:05:21.6090,02:37,10,1,2023-09-09 22:05:38.5100,1694315138.5096989,-0.0015020228456705809,-0.003973436541855335,-0.00313560594804585,0.024139404296875,-0.05303955078125,-1.0010986328125,108.28266906738281,-26.857803344726562,-40.85337829589844,2023-09-09 22:05:38.1320,1694315138.132166,0.5723469853401184,-1.2104231119155884,-1.5138521194458008,-0.4848174750804901,-0.13101190328598022,-0.7868194580078125,
0,2023-09-09 22:05:21.6090,02:37,10,1,2023-09-09 22:05:38.6100,1694315138.6095161,-0.0008663262706249952,-0.004477039910852909,-0.004277036525309086,0.024993896484375,-0.051666259765625,-1.000213623046875,108.34976196289062,-26.772781372070312,-40.397735595703125,2023-09-09 22:05:38.2310,1694315138.231334,-0.03937791287899017,-0.12364251166582108,0.2917143702507019,-0.717437744140625,0.5808869153261185,-0.8720550537109375,
0,2023-09-09 22:05:21.6090,02:37,10,1,2023-09-09 22:05:38.7090,1694315138.709203,-0.0012599414912983775,-0.005416336935013533,-0.0033718282356858253,0.025726318359375,-0.052459716796875,-1.000732421875,108.35116577148438,-26.659469604492188,-40.56700134277344,2023-09-09 22:05:38.3310,1694315138.331034,0.9322343468666077,0.36831310391426086,1.3401974439620972,-0.5497741103172302,-0.5331877768039703,-0.7465056777000427,
0,2023-09-09 22:05:21.6090,02:37,10,1,2023-09-09 22:05:38.8210,1694315138.820957,-0.001141963410191238,-0.005684250965714455,-0.0014106763992458582,0.0246429443359375,-0.0504608154296875,-1.0006866455078125,108.38858032226562,-26.894729614257812,-40.20854187011719,2023-09-09 22:05:38.4310,1694315138.4308329,-0.3456459641456604,0.41279909014701843,0.9267468452453613,-0.4855651259422302,-0.45216360688209534,-0.6835479736328125,
0,2023-09-09 22:05:21.6090,02:37,10,1,2023-09-09 22:05:38.9090,1694315138.909157,-0.00133903743699193,-0.005846970248967409,-0.000761664065066725,0.0264434814453125,-0.04962158203125,-1.0003814697265625,108.36868286132812,-26.870315551757812,-40.44044494628906,2023-09-09 22:05:38.5310,1694315138.5306501,-4.834605693817139,0.4074850082397461,0.09523498266935349,-0.3355407416820526,-0.6707763075828552,-0.582794189453125,
0,2023-09-09 22:05:21.6090,02:37,10,1,2023-09-09 22:05:39.0090,1694315139.009107,-0.0007363640470430255,-0.005342567339539528,-0.0029973878990858793,0.0223388671875,-0.05413818359375,-1.001312255859375,108.2916259765625,-26.885589599609375,-40.74055480957031,2023-09-09 22:05:38.6300,1694315138.630436,-1.631140112876892,-0.15014615654945374,-0.6974737644195557,-0.22065728902816772,-0.2025908948853612,-0.7882995009422302,
0,2023-09-09 22:05:21.6090,02:37,10,1,2023-09-09 22:05:39.1090,1694315139.108747,-0.0021081583108752966,-0.000928111607208848,-0.005822735372930765,0.0230712890625,-0.053192138671875,-1.000701904296875,108.21620178222656,-26.943511962890625,-40.522613525390625,2023-09-09 22:05:38.7300,1694315138.7304711,0.9094652533531189,-0.5069632530212402,-0.33704644441604614,-0.4409942328929901,-0.10333247482776642,-0.9025115966796875,
0,2023-09-09 22:05:21.6090,02:37,10,1,2023-09-09 22:05:39.2100,1694315139.2096782,0.0019062906503677368,-0.0041031320579349995,-0.0024770060554146767,0.0284423828125,-0.0528411865234375,-1.0029144287109375,108.14697265625,-26.610809326171875,-40.738250732421875,2023-09-09 22:05:38.8300,1694315138.830173,0.8540594577789307,0.15461601316928864,0.23100939393043518,-0.6293486952781677,-0.07655327022075653,-0.918487548828125,
0,2023-09-09 22:05:21.6090,02:37,10,1,2023-09-09 22:05:39.3100,1694315139.309551,-0.001145159243606031,-0.004475974943488836,-0.0037145770620554686,0.023406982421875,-0.0546875,-1.0016021728515625,108.22120666503906,-26.692245483398438,-40.649169921875,2023-09-09 22:05:38.9300,1694315138.9299002,1.2139874696731567,0.39852175116539,0.36170580983161926,-0.5290527045726776,-0.42268362641334534,-0.9011688232421875,
0,2023-09-09 22:05:21.6090,02:37,10,1,2023-09-09 22:05:39.4100,1694315139.4097772,0.001181111903861165,-0.0035260252188891172,-0.0017134778900071979,0.0210418701171875,-0.0528564453125,-0.9996337890625,108.29681396484375,-26.881622314453125,-40.379730224609375,2023-09-09 22:05:39.0300,1694315139.029921,-0.9325084686279297,0.06974093616008759,-0.03277235105633736,-0.4612426459789276,-0.46310415863990784,-0.8087921738624573,
0,2023-09-09 22:05:21.6090,02:37,10,1,2023-09-09 22:05:39.5090,1694315139.509152,0.0007853662245906889,-0.005528722424060106,-0.003715908620506525,0.0282135009765625,-0.05279541015625,-1.0030670166015625,108.29681396484375,-26.881622314453125,-40.379730224609375,2023-09-09 22:05:39.1300,1694315139.129758,-1.029058575630188,-0.15897493064403534,-0.252942830324173,-0.4964141547679901,-0.27499382197856903,-0.7985076904296875,
0,2023-09-09 22:05:21.6090,02:37,10,1,2023-09-09 22:05:39.6100,1694315139.6099138,-0.0005864280392415822,-0.005560946650803089,-0.004512726329267025,0.0267486572265625,-0.0542449951171875,-1.0026092529296875,108.19081115722656,-26.771087646484375,-40.59577941894531,2023-09-09 22:05:39.2300,1694315139.229588,0.0865197628736496,-0.2875266373157501,-0.022131290286779404,-0.4942626357078552,-0.14361564815044403,-0.7941131591796875,
0,2023-09-09 22:05:21.6090,02:37,10,1,2023-09-09 22:05:39.7090,1694315139.7086968,-0.001976065570488572,-0.006727943662554026,-0.004847219679504633,0.0210418701171875,-0.0549163818359375,-0.9990081787109375,108.28567504882812,-26.790145874023438,-40.69683837890625,2023-09-09 22:05:39.3290,1694315139.3293328,-0.48965704441070557,0.04814629256725311,0.18365825712680817,-0.5793761610984802,-0.20825189352035522,-0.7582550048828125,
0,2023-09-09 22:05:21.6090,02:37,10,1,2023-09-09 22:05:39.8100,1694315139.809958,-0.0012548814993351698,-0.0049763829447329044,-0.0025619608350098133,0.0267791748046875,-0.053131103515625,-1.0012054443359375,108.47314453125,-26.811996459960938,-40.45159912109375,2023-09-09 22:05:39.4290,1694315139.429387,-0.851966917514801,0.25070539116859436,0.03598427772521973,-0.5061492919921875,-0.050109803676605225,-0.85357666015625,
0,2023-09-09 22:05:21.6090,02:37,10,1,2023-09-09 22:05:39.9090,1694315139.908737,0.0015686018159613013,-0.004822984803467989,-0.00512791657820344,0.026519775390625,-0.0531463623046875,-1.0023040771484375,108.22846984863281,-26.806228637695312,-40.49043273925781,2023-09-09 22:05:39.5290,1694315139.5288591,1.0562844276428223,0.23282013833522797,0.08715718239545822,-0.4908599257469177,-0.023300111293792725,-0.82403564453125,
0,2023-09-09 22:05:21.6090,02:37,10,1,2023-09-09 22:05:40.0100,1694315140.0099869,-0.0002426139690214768,-0.00443922309204936,-0.0011528824688866735,0.02288818359375,-0.053375244140625,-0.9995269775390625,108.16853332519531,-26.7884521484375,-40.90924072265625,2023-09-09 22:05:39.6290,1694315139.629053,0.6297306418418884,0.4811541736125946,-0.13492658734321594,-0.5527801215648651,-0.3064269423484802,-1.1049957275390625,
0,2023-09-09 22:05:21.6090,02:37,10,1,2023-09-09 22:05:40.1110,1694315140.1105251,-0.0019379822770133615,-0.0052264537662267685,-0.003022954100742936,0.0247802734375,-0.053955078125,-1.0009918212890625,108.39208984375,-26.691116333007812,-40.87092590332031,2023-09-09 22:05:39.7290,1694315139.728656,-2.0060176849365234,0.24967727065086365,-0.20133677124977112,-0.4258880317211151,-0.2745513319969177,-0.7161102890968323,
0,2023-09-09 22:05:21.6090,02:37,10,1,2023-09-09 22:05:40.2080,1694315140.208375,0.00101173494476825,-0.005323392804712057,-0.0030959248542785645,0.0256805419921875,-0.053863525390625,-1.00164794921875,108.51593017578125,-26.903457641601562,-40.82789611816406,2023-09-09 22:05:39.8290,1694315139.8285398,-0.49380025267601013,0.2891487777233124,0.06148940324783325,-0.4402007758617401,0.13491824828088284,-0.9671173095703125,
0,2023-09-09 22:05:21.6090,02:37,10,1,2023-09-09 22:05:40.3100,1694315140.3096972,-0.0011914982460439205,-0.0054938350804150105,-0.003206712193787098,0.0243988037109375,-0.0547332763671875,-1.00360107421875,108.40618896484375,-26.893997192382812,-40.135284423828125,2023-09-09 22:05:39.9280,1694315139.928386,-0.2575985789299011,0.6400848031044006,0.21444056928157806,-0.4097442328929901,0.1760559305548668,-1.0958556532859802,
0,2023-09-09 22:05:21.6090,02:37,10,1,2023-09-09 22:05:40.4080,1694315140.408399,0.0015933692920953035,-0.005480252671986818,-0.0046299053356051445,0.0236968994140625,-0.0546112060546875,-1.0010986328125,108.33651733398438,-26.825088500976562,-40.1365966796875,2023-09-09 22:05:40.0280,1694315140.028302,-2.127882242202759,1.684354543685913,0.45750361680984497,-0.4290618896484375,0.2541656792163849,-0.9742279052734375,
0,2023-09-09 22:05:21.6090,02:37,10,1,2023-09-09 22:05:40.5090,1694315140.508914,0.00021065604232717305,-0.00307568465359509,-0.004039749037474394,0.0256195068359375,-0.05487060546875,-1.0025634765625,108.35514831542969,-26.911178588867188,-40.13700866699219,2023-09-09 22:05:40.1280,1694315140.128254,-2.9550557136535645,2.50067138671875,1.5251213312149048,-0.10221865214407444,0.7851867079734802,-1.0923613905906677,
0,2023-09-09 22:05:21.6090,02:37,10,1,2023-09-09 22:05:40.6090,1694315140.608982,-0.0024471788201481104,-0.001948368619196117,-0.004055195488035679,0.02606201171875,-0.0539093017578125,-1.0013580322265625,108.56449890136719,-27.020355224609375,-40.20710754394531,2023-09-09 22:05:40.2330,1694315140.232578,-1.5744686126708984,2.110517740249634,3.2391867637634277,0.259857177734375,1.035614013671875,-0.910614013671875,
0,2023-09-09 22:05:21.6090,02:37,10,1,2023-09-09 22:05:40.7100,1694315140.709681,-0.0021515677217394114,-0.004130030050873756,-0.0017744642682373524,0.0260467529296875,-0.0528106689453125,-1.0005035400390625,108.50163269042969,-26.977691650390625,-40.32688903808594,2023-09-09 22:05:40.3280,1694315140.327827,0.7582961916923523,1.4704385995864868,3.5608861446380615,0.5101622343063354,0.5812377333641052,-0.686920166015625,
0,2023-09-09 22:05:21.6090,02:37,10,1,2023-09-09 22:05:40.8100,1694315140.810454,-0.004091148264706135,-0.002407231368124485,-0.004338289611041546,0.0255584716796875,-0.0517578125,-0.9998321533203125,108.44593811035156,-26.74810791015625,-40.82005310058594,2023-09-09 22:05:40.4280,1694315140.4275432,0.4552280604839325,0.8725084066390991,3.1012520790100098,0.712631106376648,0.1189575344324112,-0.4522705078125,
0,2023-09-09 22:05:21.6090,02:37,10,1,2023-09-09 22:05:40.9210,1694315140.921342,-0.002132925670593977,-0.002775812754407525,-0.005017928313463926,0.02618408203125,-0.0507965087890625,-0.998046875,108.29953002929688,-26.907608032226562,-40.53778076171875,2023-09-09 22:05:40.5280,1694315140.527532,-0.5380754470825195,0.34496331214904785,2.0798487663269043,0.6911008954048157,-0.08221431449055672,-0.2813415825366974,
0,2023-09-09 22:05:21.6090,02:37,10,1,2023-09-09 22:05:41.0090,1694315141.0086799,-0.0029731530230492353,-0.009093896485865116,-0.0022514364682137966,0.025787353515625,-0.050750732421875,-0.9984588623046875,108.32829284667969,-26.745986938476562,-40.711212158203125,2023-09-09 22:05:40.6270,1694315140.627318,-0.7254628539085388,-0.25402992963790894,0.995024561882019,0.6831055283546448,-0.11686702817678452,-0.22552496194839478,
0,2023-09-09 22:05:21.6090,02:37,10,1,2023-09-09 22:05:41.1100,1694315141.109939,-0.0031555795576423407,-0.004658135119825602,-0.0033806166611611843,0.0265655517578125,-0.0483551025390625,-0.9976043701171875,108.433837890625,-26.951995849609375,-40.39227294921875,2023-09-09 22:05:40.7270,1694315140.7272391,1.1671488285064697,-0.18523690104484558,0.4150400161743164,0.8145596981048584,-0.04103080928325653,-0.4177398383617401,
0,2023-09-09 22:05:21.6090,02:37,10,1,2023-09-09 22:05:41.2110,1694315141.210689,-0.0036213663406670094,-0.001975266495719552,-0.004567587748169899,0.0243682861328125,-0.0484161376953125,-0.99676513671875,108.51992797851562,-26.750946044921875,-40.55418395996094,2023-09-09 22:05:40.8270,1694315140.827014,0.096072718501091,0.08444038033485413,0.21614521741867065,0.883010745048523,-0.13446038961410522,-0.4601441025733948,
0,2023-09-09 22:05:21.6090,02:37,10,1,2023-09-09 22:05:41.3100,1694315141.309526,-0.004656536970287561,-0.004634965676814318,-0.0038780951872467995,0.024993896484375,-0.0489044189453125,-0.996673583984375,108.33198547363281,-26.739486694335938,-40.89398193359375,2023-09-09 22:05:40.9270,1694315140.927021,-0.175654798746109,0.04042072594165802,0.14313912391662598,0.8529967069625854,-0.38291923701763153,-0.4081878960132599,
0,2023-09-09 22:05:21.6090,02:37,10,1,2023-09-09 22:05:41.4100,1694315141.4096398,-0.0008649947121739388,-0.001427987008355558,-0.0023129554465413094,0.025146484375,-0.0480194091796875,-0.9983062744140625,108.27189636230469,-26.743682861328125,-40.86991882324219,2023-09-09 22:05:41.0270,1694315141.0265899,0.08475854992866516,0.045981407165527344,0.27483394742012024,0.9038695693016052,-0.26850882172584534,-0.3580932319164276,
0,2023-09-09 22:05:21.6090,02:37,10,1,2023-09-09 22:05:41.5100,1694315141.509949,-0.003061303636059165,-0.004857605788856745,-0.002347576431930065,0.0252838134765625,-0.049407958984375,-0.99853515625,108.28804016113281,-26.754776000976562,-40.79673767089844,2023-09-09 22:05:41.1270,1694315141.126734,0.412797212600708,0.07403554767370224,0.2725214958190918,0.8506620526313782,-0.41116324067115784,-0.4139403998851776,
0,2023-09-09 22:05:21.6090,02:37,10,1,2023-09-09 22:05:41.6100,1694315141.609853,-0.003061303636059165,-0.004857605788856745,-0.002347576431930065,0.024566650390625,-0.0507659912109375,-0.99810791015625,108.28437805175781,-26.858917236328125,-40.96635437011719,2023-09-09 22:05:41.2260,1694315141.226294,0.4971562922000885,-0.071504607796669,0.18321679532527924,0.8732299208641052,-0.33523550629615784,-0.43417367339134216,
0,2023-09-09 22:05:21.6090,02:37,10,1,2023-09-09 22:05:41.7090,1694315141.709378,-0.00330285239033401,-0.00364719913341105,-0.0020695424173027277,0.0275115966796875,-0.0504913330078125,-0.999786376953125,108.28860473632812,-26.767684936523438,-41.15583801269531,2023-09-09 22:05:41.3260,1694315141.326235,0.20704291760921478,-0.08557981252670288,0.11091507971286774,0.8577726483345032,-0.30642688274383545,-0.3855438530445099,
0,2023-09-09 22:05:21.6090,02:37,10,1,2023-09-09 22:05:41.8090,1694315141.809433,-0.0020602215081453323,-0.004448277875781059,-0.0020445086993277073,0.024871826171875,-0.0503997802734375,-0.9975433349609375,108.38514709472656,-26.73211669921875,-41.14179992675781,2023-09-09 22:05:41.4260,1694315141.4262052,-0.07027337700128555,-0.07259956747293472,0.0067266239784657955,0.843841552734375,-0.28712454438209534,-0.4125061333179474,
0,2023-09-09 22:05:21.6090,02:37,10,1,2023-09-09 22:05:41.9100,1694315141.9097629,-0.0018130800453945994,-0.004508997779339552,-0.004610997159034014,0.0253753662109375,-0.05126953125,-1.0011749267578125,108.29669189453125,-27.01239013671875,-40.83184814453125,2023-09-09 22:05:41.5260,1694315141.525786,-0.2667745053768158,-0.08093433082103729,0.09483654052019119,0.8520355224609375,-0.30087271332740784,-0.3607178330421448,
0,2023-09-09 22:05:21.6090,02:37,10,1,2023-09-09 22:05:42.0100,1694315142.010068,0.0018229337874799967,-0.005687446799129248,-0.002314287004992366,0.026947021484375,-0.0516357421875,-1.0020294189453125,108.37113952636719,-26.937301635742188,-40.772064208984375,2023-09-09 22:05:41.6260,1694315141.6256452,-0.28215181827545166,0.037806570529937744,2.7308764401823282e-05,0.820541262626648,-0.39389029145240784,-0.3738403618335724,
0,2023-09-09 22:05:21.6090,02:37,10,1,2023-09-09 22:05:42.1100,1694315142.109905,0.0029822078067809343,-0.005784918554127216,-0.0036738307680934668,0.026031494140625,-0.05145263671875,-1.0033721923828125,108.25318908691406,-26.70269775390625,-40.736297607421875,2023-09-09 22:05:41.7260,1694315141.725519,0.4216957688331604,-0.06632662564516068,-0.24650214612483978,0.8456267714500427,-0.37388601899147034,-0.3935394585132599,
0,2023-09-09 22:05:21.6090,02:37,10,1,2023-09-09 22:05:42.2090,1694315142.2093558,-0.0010626012226566672,-0.004039482679218054,-0.0020501012913882732,0.0243072509765625,-0.0518798828125,-1.000579833984375,108.14633178710938,-26.81390380859375,-40.776153564453125,2023-09-09 22:05:41.8250,1694315141.825149,-0.11701465398073196,-0.06846847385168076,-0.4239899516105652,0.8364561200141907,-0.37419119477272034,-0.4520569443702698,
0,2023-09-09 22:05:21.6090,02:37,10,1,2023-09-09 22:05:42.3100,1694315142.309816,-0.0017603494925424457,0.00022290658671408892,-0.0038780951872467995,0.025665283203125,-0.051116943359375,-1.001129150390625,108.18757629394531,-26.659713745117188,-40.81489562988281,2023-09-09 22:05:41.9250,1694315141.925132,0.5905357599258423,-0.00548617634922266,-0.24971291422843933,0.8483885526657104,-0.16206347942352295,-0.4321899116039276,
0,2023-09-09 22:05:21.6090,02:37,10,1,2023-09-09 22:05:42.4220,1694315142.422075,-0.0003888215287588537,-0.004984905011951923,-0.005095425993204117,0.02716064453125,-0.05126953125,-1.0008544921875,108.26055908203125,-26.769744873046875,-40.197540283203125,2023-09-09 22:05:42.0250,1694315142.0249472,-0.4659176468849182,-0.009172391146421432,-0.2727576196193695,0.8321227431297302,-0.3742217421531677,-0.4523163139820099,
0,2023-09-09 22:05:21.6090,02:37,10,1,2023-09-09 22:05:42.5230,1694315142.5227242,-0.0007813714328221977,-0.0036993969697505236,-0.0017361147329211235,0.02484130859375,-0.0511322021484375,-0.999847412109375,108.26121520996094,-26.699554443359375,-40.49037170410156,2023-09-09 22:05:42.1250,1694315142.124918,-0.8982968926429749,-0.03565087169408798,-0.19128505885601044,0.8435515761375427,-0.3358611464500427,-0.4059906303882599,
0,2023-09-09 22:05:21.6090,02:37,10,1,2023-09-09 22:05:42.6100,1694315142.610338,-0.0007813714328221977,-0.0036993969697505236,-0.0017361147329211235,0.02459716796875,-0.0511016845703125,-1.0005950927734375,108.31895446777344,-26.792449951171875,-40.303466796875,2023-09-09 22:05:42.2250,1694315142.224611,-0.31788450479507446,-0.05487063527107239,-0.09185534715652466,0.8670042753219604,-0.2853850722312927,-0.4121704697608948,
0,2023-09-09 22:05:21.6090,02:37,10,1,2023-09-09 22:05:42.7240,1694315142.723644,0.00016591492749284953,-0.005399026442319155,-0.0017973673529922962,0.024566650390625,-0.0510711669921875,-1.0005035400390625,108.31105041503906,-26.581832885742188,-40.9759521484375,2023-09-09 22:05:42.3240,1694315142.324366,0.05004710704088211,-0.024383168667554855,0.0807284489274025,0.8520506024360657,-0.28793327510356903,-0.4168548285961151,
0,2023-09-09 22:05:21.6090,02:37,10,1,2023-09-09 22:05:42.8090,1694315142.809375,0.00016591492749284953,-0.005399026442319155,-0.0017973673529922962,0.0254058837890625,-0.05108642578125,-0.99957275390625,108.13681030273438,-26.605117797851562,-40.71418762207031,2023-09-09 22:05:42.4250,1694315142.4246268,0.14030782878398895,0.03453966975212097,0.11959990859031677,0.8670958280563354,-0.23213188350200653,-0.4664154648780823,
0,2023-09-09 22:05:21.6090,02:37,10,1,2023-09-09 22:05:42.9090,1694315142.909492,-0.0006199838826432824,-0.003063700394704938,-0.0013432984706014395,0.0246429443359375,-0.0516357421875,-0.999237060546875,108.29460144042969,-26.867630004882812,-40.76727294921875,2023-09-09 22:05:42.5240,1694315142.524199,-0.2196759134531021,0.009532054886221886,0.1544661521911621,0.8593444228172302,-0.20484918355941772,-0.3828735649585724,
0,2023-09-09 22:05:21.6090,02:37,10,1,2023-09-09 22:05:43.0100,1694315143.009593,-0.002528937766328454,-0.0035806200467050076,-0.002350772265344858,0.0262908935546875,-0.0519256591796875,-0.9999542236328125,108.39166259765625,-26.752883911132812,-40.86149597167969,2023-09-09 22:05:42.6240,1694315142.6240911,-0.06214568018913269,0.029794981703162193,-0.10157894343137741,0.858322024345398,-0.24475090205669403,-0.4687499701976776,
0,2023-09-09 22:05:21.6090,02:37,10,1,2023-09-09 22:05:43.1090,1694315143.1094708,-0.001990446588024497,-0.004507133737206459,-0.004057059530168772,0.024749755859375,-0.052703857421875,-1.0008697509765625,108.33802795410156,-27.111190795898438,-40.82281494140625,2023-09-09 22:05:42.7240,1694315142.723851,-0.12427463382482529,0.12759678065776825,0.06678640097379684,0.8270262479782104,-0.18560783565044403,-0.506744384765625,
0,2023-09-09 22:05:21.6090,02:37,10,1,2023-09-09 22:05:43.2090,1694315143.209351,0.0008966863388195634,-0.005370264407247305,-0.002079662401229143,0.0258026123046875,-0.05291748046875,-1.0020751953125,108.29010009765625,-26.865692138671875,-40.63682556152344,2023-09-09 22:05:42.8240,1694315142.823697,-0.11439896374940872,0.04032126069068909,0.07029970735311508,0.8416747450828552,-0.27330009639263153,-0.4868163764476776,
0,2023-09-09 22:05:21.6090,02:37,10,1,2023-09-09 22:05:43.3100,1694315143.309798,0.0013526194961741567,-0.00310497940517962,-0.00321949552744627,0.0272369384765625,-0.0532684326171875,-1.00054931640625,108.30534362792969,-26.925674438476562,-41.007232666015625,2023-09-09 22:05:42.9230,1694315142.9234838,0.0958888977766037,-0.043333426117897034,0.04782229661941528,0.8632964491844177,-0.22288505733013153,-0.45648193359375,
0,2023-09-09 22:05:21.6090,02:37,10,1,2023-09-09 22:05:43.4090,1694315143.409009,-0.001514539704658091,-0.0016993631143122911,-0.0027747475542128086,0.0262298583984375,-0.0523681640625,-1.0011138916015625,108.31387329101562,-27.011688232421875,-40.559539794921875,2023-09-09 22:05:43.0310,1694315143.030778,-0.008323924615979195,-0.05191386118531227,-0.029140198603272438,0.8872068524360657,-0.22560110688209534,-0.4425048232078552,
0,2023-09-09 22:05:21.6090,02:37,10,1,2023-09-09 22:05:43.5100,1694315143.509634,0.0011611381778493524,-0.001469798618927598,-0.0008274441352114081,0.0237884521484375,-0.0526275634765625,-0.99871826171875,108.352783203125,-27.25396728515625,-40.9036865234375,2023-09-09 22:05:43.1230,1694315143.123416,0.0946768969297409,0.06476135551929474,0.04345138370990753,0.8567656874656677,-0.22947685420513153,-0.4470825493335724,
0,2023-09-09 22:05:21.6090,02:37,10,1,2023-09-09 22:05:43.6100,1694315143.609911,-0.001300155185163021,-0.0004114583716727793,-0.001273523666895926,0.02606201171875,-0.0509033203125,-1.0006561279296875,108.45820617675781,-27.116973876953125,-40.595458984375,2023-09-09 22:05:43.2230,1694315143.223116,0.939592719078064,0.09061532467603683,0.2572084069252014,0.8403929471969604,-0.21160879731178284,-0.3841247856616974,
0,2023-09-09 22:05:21.6090,02:37,10,1,2023-09-09 22:05:43.7090,1694315143.709498,-0.0014048174489289522,-0.005824599415063858,-0.0013310478534549475,0.0227813720703125,-0.0539703369140625,-1.00128173828125,108.36048889160156,-27.0396728515625,-40.647674560546875,2023-09-09 22:05:43.3230,1694315143.323338,0.6377933025360107,-0.018501844257116318,0.3154900372028351,0.878585696220398,-0.3539733290672302,-0.3224640190601349,
0,2023-09-09 22:05:21.6090,02:37,10,1,2023-09-09 22:05:43.8100,1694315143.809679,-0.001249555149115622,0.00041678472189232707,-0.0038133803755044937,0.0228118896484375,-0.05560302734375,-1.000762939453125,108.36802673339844,-26.9129638671875,-40.5936279296875,2023-09-09 22:05:43.4230,1694315143.42275,-0.12363753467798233,-0.00046225544065237045,-0.09138822555541992,0.8142698407173157,-0.5464476644992828,-0.3719787895679474,
0,2023-09-09 22:05:21.6090,02:37,10,1,2023-09-09 22:05:43.9090,1694315143.909107,-0.00039760995423421264,0.00030067088664509356,-0.004292216617614031,0.02740478515625,-0.0536041259765625,-1.0032806396484375,108.38943481445312,-26.933013916015625,-40.97721862792969,2023-09-09 22:05:43.5230,1694315143.52254,-0.9173868298530579,0.01455104723572731,-0.14153754711151123,0.8281095623970032,-0.31295767426490784,-0.4378052055835724,
0,2023-09-09 22:05:21.6090,02:37,10,1,2023-09-09 22:05:44.0080,1694315144.0080829,-0.0005624596378766,-0.004758802708238363,-0.003984355367720127,0.0264434814453125,-0.054107666015625,-0.999114990234375,108.33055114746094,-26.965240478515625,-40.7628173828125,2023-09-09 22:05:43.6220,1694315143.622388,-2.462862253189087,0.037086717784404755,-0.0014177891425788403,0.9205474257469177,-0.3349303603172302,-0.3494873344898224,
0,2023-09-09 22:05:21.6090,02:37,10,1,2023-09-09 22:05:44.1090,1694315144.1094952,-0.000322775129461661,-0.0033483924344182014,-0.004193946253508329,0.0249786376953125,-0.0516815185546875,-1.0002899169921875,108.39710998535156,-26.969711303710938,-40.65364074707031,2023-09-09 22:05:43.7220,1694315143.7223458,-1.6203317642211914,0.05051238089799881,0.23595251142978668,0.8240661025047302,-0.17266839742660522,-0.5605469346046448,
0,2023-09-09 22:05:21.6090,02:37,10,1,2023-09-09 22:05:44.2100,1694315144.20967,0.0011028150329366326,-0.003308711340650916,-0.0017068199813365936,0.0261383056640625,-0.05206298828125,-1.0003814697265625,108.33903503417969,-26.844757080078125,-40.380035400390625,2023-09-09 22:05:43.8220,1694315143.822222,-1.1925392150878906,-0.023462912067770958,0.005477667786180973,0.8843382596969604,-0.18612664937973022,-0.3917388617992401,
0,2023-09-09 22:05:21.6090,02:37,10,1,2023-09-09 22:05:44.3100,1694315144.3096151,-0.003234142903238535,-0.0031822111923247576,-0.002261822810396552,0.0275115966796875,-0.05029296875,-0.9997406005859375,108.38432312011719,-26.923477172851562,-40.61811828613281,2023-09-09 22:05:43.9220,1694315143.922034,-0.18589559197425842,-0.1576492041349411,0.13773325085639954,0.894180178642273,-0.2968444302678108,-0.5856322646141052,
0,2023-09-09 22:05:21.6090,02:37,10,1,2023-09-09 22:05:44.4100,1694315144.409534,-0.0024431839119642973,-0.0043321643024683,-0.00358860963024199,0.0235443115234375,-0.05035400390625,-0.9974517822265625,108.50225830078125,-26.859283447265625,-40.75382995605469,2023-09-09 22:05:44.0260,1694315144.026067,-0.39270463585853577,0.020944366231560707,0.0405946746468544,0.8118132948875427,-0.3504638373851776,-0.6656646728515625,
0,2023-09-09 22:05:21.6090,02:37,10,1,2023-09-09 22:05:44.5080,1694315144.508182,-0.0014929680619388819,0.0005438174703158438,-0.0014125406742095947,0.02410888671875,-0.0501556396484375,-0.99774169921875,108.4259033203125,-26.905654907226562,-40.554718017578125,2023-09-09 22:05:44.1220,1694315144.1219292,-0.12183204293251038,0.021092303097248077,-0.04031378775835037,0.7078245878219604,-0.14303585141897202,-0.4968566298484802,
0,2023-09-09 22:05:21.6090,02:37,10,1,2023-09-09 22:05:44.6090,1694315144.6094131,-0.0021667478140443563,-0.005167065188288689,0.0003182477375958115,0.0250701904296875,-0.0511322021484375,-0.9992523193359375,108.41252136230469,-27.10382080078125,-40.507293701171875,2023-09-09 22:05:44.2220,1694315144.221571,0.03202509507536888,0.14293497800827026,-0.017098847776651382,0.8692321181297302,0.09323123842477798,-0.584991455078125,
0,2023-09-09 22:05:21.6090,02:37,10,1,2023-09-09 22:05:44.7100,1694315144.710072,-0.00264824740588665,-0.004544684197753668,-0.004827245604246855,0.02593994140625,-0.0512847900390625,-0.9984283447265625,108.31060791015625,-26.688278198242188,-40.89265441894531,2023-09-09 22:05:44.3210,1694315144.32148,-0.3454340696334839,0.113540880382061,0.12922148406505585,0.8635863661766052,-0.008911120821721852,-0.5412140488624573,
0,2023-09-09 22:05:21.6090,02:37,10,1,2023-09-09 22:05:44.8100,1694315144.809702,-0.0011624698527157307,-0.002688727341592312,-0.001651692553423345,0.025054931640625,-0.05084228515625,-0.998260498046875,108.33056640625,-27.103347778320312,-40.87620544433594,2023-09-09 22:05:44.4210,1694315144.4211721,-0.6842337250709534,0.27430540323257446,0.06387446075677872,0.8357085585594177,0.058776864781975746,-0.5883636474609375,
0,2023-09-09 22:05:21.6090,02:37,10,1,2023-09-09 22:05:44.9090,1694315144.908565,-0.0023097596131265163,-0.0026458504144102335,-0.004531102254986763,0.024566650390625,-0.0516204833984375,-1.00091552734375,108.3790283203125,-26.843429565429688,-40.44804382324219,2023-09-09 22:05:44.5210,1694315144.5210218,-0.46635952591896057,0.00666849035769701,-0.012171800248324871,0.8458098769187927,-0.043212875723838806,-0.4454803466796875,
0,2023-09-09 22:05:21.6090,02:37,10,1,2023-09-09 22:05:45.0090,1694315145.009407,-0.002544117858633399,-0.006054430268704891,-0.0010037453612312675,0.0269775390625,-0.0514678955078125,-0.99993896484375,108.33110046386719,-26.707244873046875,-40.92436218261719,2023-09-09 22:05:44.6210,1694315144.6209679,-0.2517368495464325,0.16224288940429688,-0.059061743319034576,0.8723143935203552,0.0861053317785263,-0.5178985893726349,
0,2023-09-09 22:05:21.6090,02:37,10,1,2023-09-09 22:05:45.1090,1694315145.109058,-0.002234392100945115,-0.004490888677537441,-0.0038016624748706818,0.0261077880859375,-0.0519256591796875,-0.9990997314453125,108.39186096191406,-26.760345458984375,-40.820343017578125,2023-09-09 22:05:44.7210,1694315144.720563,0.7681775689125061,0.027757931500673294,-0.13818103075027466,0.9344329237937927,0.1309051439166069,-0.47442626953125,
0,2023-09-09 22:05:21.6090,02:37,10,1,2023-09-09 22:05:45.2090,1694315145.20922,-0.0005946838646195829,-0.0033787523861974478,-0.001651159836910665,0.0263824462890625,-0.0513458251953125,-0.999664306640625,108.47148132324219,-27.038162231445312,-40.17041015625,2023-09-09 22:05:44.8210,1694315144.820541,-0.09463810175657272,0.10486629605293274,-0.06427378207445145,0.8986204862594604,0.0289306640625,-0.5162506699562073,
0,2023-09-09 22:05:21.6090,02:37,10,1,2023-09-09 22:05:45.3090,1694315145.30906,-0.0017355820164084435,-0.005574262235313654,-0.0021845910232514143,0.0233612060546875,-0.05108642578125,-1.0008392333984375,108.41902160644531,-26.9893798828125,-40.72615051269531,2023-09-09 22:05:44.9200,1694315144.920366,0.018228458240628242,0.08769809454679489,-0.03201008588075638,0.9366148114204407,0.1045837327837944,-0.3040770888328552,
0,2023-09-09 22:05:21.6090,02:37,10,1,2023-09-09 22:05:45.4100,1694315145.40991,-0.0019776634871959686,-0.0046783750876784325,-0.0018791264155879617,0.02569580078125,-0.0507049560546875,-1.0004730224609375,108.56466674804688,-27.156112670898438,-40.58758544921875,2023-09-09 22:05:45.0200,1694315145.0203729,0.6107521057128906,-0.11647661030292511,0.08230496942996979,0.8527830839157104,0.1120910719037056,-0.5370635688304901,
0,2023-09-09 22:05:21.6090,02:37,10,1,2023-09-09 22:05:45.5090,1694315145.509253,-0.0006820355774834752,-0.004066913388669491,-0.002763562137261033,0.0267486572265625,-0.0505523681640625,-0.9977874755859375,108.36039733886719,-27.105819702148438,-40.84278869628906,2023-09-09 22:05:45.1200,1694315145.120195,0.20005424320697784,-0.03665807470679283,-0.0017628679051995277,0.8821410536766052,0.0604705885052681,-0.467315673828125,
0,2023-09-09 22:05:21.6090,02:37,10,1,2023-09-09 22:05:45.6100,1694315145.6100578,0.0010735202813521028,-0.0024977787397801876,-0.0017832526937127113,0.0252532958984375,-0.050628662109375,-0.99993896484375,108.17497253417969,-26.744216918945312,-40.41099548339844,2023-09-09 22:05:45.2200,1694315145.2199302,0.009579641744494438,-0.08704535663127899,-0.11449740827083588,0.8603515028953552,-0.036437977105379105,-0.4711456596851349,
0,2023-09-09 22:05:21.6090,02:37,10,1,2023-09-09 22:05:45.7090,1694315145.7092528,-0.0006095975404605269,-0.006746319588273764,-0.001745968358591199,0.0247039794921875,-0.0511016845703125,-1.00054931640625,108.20863342285156,-26.742752075195312,-40.47871398925781,2023-09-09 22:05:45.3200,1694315145.319922,0.18550506234169006,0.1312285214662552,-0.08934474736452103,0.8480376601219177,0.0356750562787056,-0.5327453911304474,
0,2023-09-09 22:05:21.6090,02:37,10,1,2023-09-09 22:05:45.8090,1694315145.8094358,0.0031995216850191355,-0.0049161952920258045,-0.005420065484941006,0.0254364013671875,-0.051239013671875,-0.9992828369140625,108.31474304199219,-26.67071533203125,-40.64500427246094,2023-09-09 22:05:45.4200,1694315145.4197412,0.691779375076294,-0.04828916862607002,-0.016667447984218597,0.84600830078125,0.05256655067205429,-0.5873718857765198,
0,2023-09-09 22:05:21.6090,02:37,10,1,2023-09-09 22:05:45.9090,1694315145.908597,-0.001841575838625431,-0.0025680861435830593,-0.001933454885147512,0.0254364013671875,-0.0504302978515625,-1.0003204345703125,108.34458923339844,-26.825119018554688,-40.60430908203125,2023-09-09 22:05:45.5190,1694315145.519258,0.20659030973911285,0.013060476630926132,-0.05165126547217369,0.8661651015281677,0.1408996656537056,-0.4249573051929474,
0,2023-09-09 22:05:21.6090,02:37,10,1,2023-09-09 22:05:46.0100,1694315146.010302,-0.0005137237603776157,-0.003215500619262457,-0.0043561323545873165,0.025543212890625,-0.05035400390625,-0.999359130859375,108.39739990234375,-26.68389892578125,-40.75390625,2023-09-09 22:05:45.6190,1694315145.619331,-0.013852381147444248,0.018596256151795387,0.05063332989811897,0.8563689589500427,0.0677337795495987,-0.491119384765625,
0,2023-09-09 22:05:21.6090,02:37,10,1,2023-09-09 22:05:46.1090,1694315146.109442,-0.0002663161139935255,-0.003602724289521575,-0.0038661109283566475,0.02606201171875,-0.050872802734375,-1.0006866455078125,108.34016418457031,-26.881454467773438,-40.850372314453125,2023-09-09 22:05:45.7190,1694315145.719141,-0.013511694967746735,-0.032596491277217865,-0.036240749061107635,0.8701323866844177,0.0846557766199112,-0.4880065619945526,
0,2023-09-09 22:05:21.6090,02:37,10,1,2023-09-09 22:05:46.2210,1694315146.220652,0.0001994707708945498,-0.0052016861736774445,-0.0035089810844510794,0.022003173828125,-0.0514984130859375,-0.9995269775390625,108.42399597167969,-27.02056884765625,-40.78370666503906,2023-09-09 22:05:45.8190,1694315145.818948,0.3575863242149353,0.06292310357093811,-0.10015295445919037,0.865585207939148,0.0906829908490181,-0.5100707411766052,
0,2023-09-09 22:05:21.6090,02:37,10,1,2023-09-09 22:05:46.3220,1694315146.321795,-0.002296710154041648,-0.003320162883028388,-0.0019678096286952496,0.0267333984375,-0.0510406494140625,-0.99993896484375,108.49496459960938,-27.017532348632812,-40.754852294921875,2023-09-09 22:05:45.9190,1694315145.918826,0.28327929973602295,0.015498200431466103,-0.153702974319458,0.8745115995407104,0.031738296151161194,-0.4477538764476776,
0,2023-09-09 22:05:21.6090,02:37,10,1,2023-09-09 22:05:46.4100,1694315146.409517,-0.001333178486675024,-0.005764145869761705,-0.0020516992080956697,0.0266265869140625,-0.0507049560546875,-1.0009918212890625,108.32331848144531,-26.768844604492188,-40.68547058105469,2023-09-09 22:05:46.0190,1694315146.018692,0.36766549944877625,0.029679667204618454,-0.018597707152366638,0.8711241483688354,0.09893801063299179,-0.5479431748390198,
0,2023-09-09 22:05:21.6090,02:37,10,1,2023-09-09 22:05:46.5100,1694315146.510124,0.0012926984345540404,-0.004502872936427593,-0.002802178030833602,0.025299072265625,-0.0522308349609375,-0.998779296875,108.51408386230469,-27.148040771484375,-40.722900390625,2023-09-09 22:05:46.1190,1694315146.118733,0.05800430104136467,0.05734777823090553,-0.0670066550374031,0.8749693632125854,0.0761261135339737,-0.4426422417163849,
0,2023-09-09 22:05:21.6090,02:37,10,1,2023-09-09 22:05:46.6220,1694315146.622181,0.0004849616379942745,-0.005851231049746275,-0.005140966270118952,0.0260467529296875,-0.0525054931640625,-1.001495361328125,108.34483337402344,-26.962738037109375,-40.94883728027344,2023-09-09 22:05:46.2180,1694315146.218257,-0.07032298296689987,0.014926420524716377,0.021854078397154808,0.8718413710594177,0.07357790321111679,-0.4541321098804474,
0,2023-09-09 22:05:21.6090,02:37,10,1,2023-09-09 22:05:46.7100,1694315146.709703,-0.002466087229549885,-0.003290868131443858,-0.003163302782922983,0.0254058837890625,-0.0526275634765625,-0.999725341796875,108.41720581054688,-27.070816040039062,-40.54356384277344,2023-09-09 22:05:46.3180,1694315146.318273,-0.07758808135986328,-0.04763416200876236,-0.07139091193675995,0.868331789970398,0.0722961500287056,-0.45159912109375,
0,2023-09-09 22:05:21.6090,02:37,10,1,2023-09-09 22:05:46.8100,1694315146.8099241,-0.004326571244746447,-0.006480802316218615,-0.003519633784890175,0.0248565673828125,-0.0524749755859375,-1.0006256103515625,108.19023132324219,-26.834793090820312,-40.64408874511719,2023-09-09 22:05:46.4180,1694315146.418097,0.18835684657096863,-0.032171983271837234,-0.18855512142181396,0.849258303642273,-0.004974357783794403,-0.5140380859375,
0,2023-09-09 22:05:21.6090,02:37,10,1,2023-09-09 22:05:46.9090,1694315146.90887,-0.0019110844004899263,-0.00569969741627574,-0.003355316584929824,0.0250091552734375,-0.051300048828125,-0.9983062744140625,108.3692626953125,-26.758895874023438,-40.37115478515625,2023-09-09 22:05:46.5180,1694315146.518035,0.018562084063887596,-0.051607199013233185,-0.11353007704019547,0.870437502861023,0.10662844032049179,-0.5177307426929474,
0,2023-09-09 22:05:21.6090,02:37,10,1,2023-09-09 22:05:47.0090,1694315147.009403,-0.0010468886466696858,-0.004009122494608164,-0.0032661007717251778,0.02716064453125,-0.0507049560546875,-0.99945068359375,108.34304809570312,-26.807876586914062,-40.80682373046875,2023-09-09 22:05:46.6180,1694315146.617718,0.7809669375419617,-0.1890413463115692,0.007398772053420544,0.9405516386032104,0.1676940992474556,-0.4324493408203125,
0,2023-09-09 22:05:21.6090,02:37,10,1,2023-09-09 22:05:47.1090,1694315147.108955,-0.0010841728653758764,-0.00654578348621726,-0.0007566040731035173,0.0266876220703125,-0.0513916015625,-1.0000762939453125,108.21853637695312,-26.77392578125,-40.450469970703125,2023-09-09 22:05:46.7170,1694315146.7174459,0.6597025394439697,0.04311478137969971,-0.061165742576122284,0.8789061903953552,-0.005462631583213806,-0.5165100395679474,
0,2023-09-09 22:05:21.6090,02:37,10,1,2023-09-09 22:05:47.2220,1694315147.222268,-0.0003336940717417747,-0.001344363670796156,-0.002100701443850994,0.0244140625,-0.0519866943359375,-1.0003509521484375,108.49832153320312,-27.09954833984375,-40.42903137207031,2023-09-09 22:05:46.8170,1694315146.817483,0.077019602060318,-0.020176971331238747,0.08884110301733017,0.8032836318016052,0.01097109168767929,-0.4930419623851776,
0,2023-09-09 22:05:21.6090,02:37,10,1,2023-09-09 22:05:47.3090,1694315147.309214,-0.0026900589000433683,-0.002975017298012972,-0.0041364217177033424,0.025421142578125,-0.0516204833984375,-1.000701904296875,108.3428955078125,-26.748916625976562,-40.291595458984375,2023-09-09 22:05:46.9170,1694315146.9172401,0.5514227151870728,0.10006847977638245,-0.07450181990861893,0.7668607831001282,-0.06477353605441749,-0.580291748046875,
0,2023-09-09 22:05:21.6090,02:37,10,1,2023-09-09 22:05:47.4090,1694315147.408946,-0.0023073628544807434,-0.004145476501435041,-0.00415373221039772,0.026153564453125,-0.051239013671875,-1.0007476806640625,108.23979187011719,-26.847702026367188,-40.612762451171875,2023-09-09 22:05:47.0170,1694315147.017154,0.49759432673454285,-0.05866723880171776,-0.012690617702901363,0.8774108290672302,0.016296421643346548,-0.521087646484375,
0,2023-09-09 22:05:21.6090,02:37,10,1,2023-09-09 22:05:47.5090,1694315147.50948,0.00022450447431765497,-0.0034495925065129995,-0.002254632068797946,0.024871826171875,-0.0507659912109375,-0.99884033203125,108.44659423828125,-26.622146606445312,-40.6214599609375,2023-09-09 22:05:47.1170,1694315147.117065,-0.014672167599201202,-0.03594115376472473,-0.10631311684846878,0.8780516982078552,-0.004348722955910489,-0.4884796142578125,
0,2023-09-09 22:05:21.6090,02:37,10,1,2023-09-09 22:05:47.6090,1694315147.609133,-0.0007904262165538967,-0.0046456181444227695,-0.0015707324491813779,0.0241546630859375,-0.05133056640625,-1.0010528564453125,108.38424682617188,-26.938674926757812,-40.89002990722656,2023-09-09 22:05:47.2170,1694315147.216723,0.38127344846725464,0.01533881202340126,-0.09683285653591156,0.8328551650047302,0.012222323333844543,-0.53424072265625,
0,2023-09-09 22:05:21.6090,02:37,10,1,2023-09-09 22:05:47.7090,1694315147.709346,-0.0019385149935260415,-0.005405684467405081,-0.002261023735627532,0.024505615234375,-0.0513763427734375,-0.99969482421875,108.35295104980469,-26.753448486328125,-41.05638122558594,2023-09-09 22:05:47.3170,1694315147.3165011,1.1168997287750244,0.03931351751089096,-0.03301190212368965,0.8534392714500427,0.07562259025871754,-0.4727783203125,
0,2023-09-09 22:05:21.6090,02:37,10,1,2023-09-09 22:05:47.8210,1694315147.821015,-0.00045912896166555583,-0.004862665664404631,-0.004896754398941994,0.0257720947265625,-0.05120849609375,-1.0001068115234375,108.44015502929688,-27.02252197265625,-40.87605285644531,2023-09-09 22:05:47.4160,1694315147.416294,0.8802903890609741,0.014886872842907906,-0.12833832204341888,0.8345336318016052,-0.001892048865556717,-0.4141845703125,
0,2023-09-09 22:05:21.6090,02:37,10,1,2023-09-09 22:05:47.9220,1694315147.922031,-0.0023901870008558035,-0.004291683901101351,-0.003368099918588996,0.0251617431640625,-0.0517730712890625,-0.9990997314453125,108.28684997558594,-27.000823974609375,-41.06199645996094,2023-09-09 22:05:47.5160,1694315147.516187,1.547003149986267,0.044134773313999176,-0.44528889656066895,0.7771300077438354,-0.04530329257249832,-0.4028625786304474,
0,2023-09-09 22:05:21.6090,02:37,10,1,2023-09-09 22:05:48.0100,1694315148.010153,0.00021198761533014476,-0.0031457259319722652,-0.0012122709304094315,0.0253448486328125,-0.0516357421875,-1.00048828125,108.57771301269531,-26.939300537109375,-41.0894775390625,2023-09-09 22:05:47.6160,1694315147.6161618,0.9693129062652588,0.1271192729473114,-1.104658842086792,0.685165286064148,-0.14999385178089142,-0.4099579453468323,
0,2023-09-09 22:05:21.6090,02:37,10,1,2023-09-09 22:05:48.1220,1694315148.122163,-0.0022857910953462124,-0.006095442920923233,-0.0036482643336057663,0.025543212890625,-0.051055908203125,-1.0006256103515625,108.40391540527344,-26.794342041015625,-40.82850646972656,2023-09-09 22:05:47.7160,1694315147.715972,0.005697219632565975,-0.2278800904750824,-2.297640085220337,0.6538695096969604,-0.04335018992424011,-0.4071502685546875,
0,2023-09-09 22:05:21.6090,02:37,10,1,2023-09-09 22:05:48.2090,1694315148.208791,0.0013432984706014395,-0.004538825247436762,-0.0027286747936159372,0.0250244140625,-0.0511627197265625,-0.9977874755859375,108.38496398925781,-26.996780395507812,-40.91802978515625,2023-09-09 22:05:47.8160,1694315147.815843,1.2415549755096436,-0.59325110912323,-3.0369207859039307,0.6189879179000854,0.2343902885913849,-0.4404754638671875,
0,2023-09-09 22:05:21.6090,02:37,10,1,2023-09-09 22:05:48.3090,1694315148.3094969,-0.0023092268966138363,-0.000913197931367904,-0.00352868833579123,0.0261383056640625,-0.0515594482421875,-0.99774169921875,108.50689697265625,-27.055404663085938,-40.61222839355469,2023-09-09 22:05:47.9160,1694315147.915604,-0.1887451708316803,-0.20831026136875153,-2.9228503704071045,0.565933108329773,0.7613982856273651,-0.5845490097999573,
0,2023-09-09 22:05:21.6090,02:37,10,1,2023-09-09 22:05:48.4100,1694315148.4100099,-0.0007629956235177815,-0.002566754585132003,-0.0037286917213350534,0.02618408203125,-0.0496063232421875,-0.9995574951171875,108.48802185058594,-26.98291015625,-40.52180480957031,2023-09-09 22:05:48.0150,1694315148.015439,-0.15004444122314453,0.5567033886909485,-2.226958990097046,0.4147033095359802,1.0656890869140625,-0.6688690781593323,
0,2023-09-09 22:05:21.6090,02:37,10,1,2023-09-09 22:05:48.5100,1694315148.5100942,-0.0024551681708544493,-0.004832572303712368,-0.0028032432310283184,0.02374267578125,-0.049560546875,-0.998870849609375,108.39987182617188,-26.749420166015625,-40.90818786621094,2023-09-09 22:05:48.1150,1694315148.115345,-0.28771448135375977,0.29462265968322754,-1.108289361000061,0.48724353313446045,1.1304473280906677,-0.7066192626953125,
0,2023-09-09 22:05:21.6090,02:37,10,1,2023-09-09 22:05:48.6210,1694315148.621383,-0.00022903185163158923,-0.002712695859372616,-0.004803809802979231,0.0251617431640625,-0.05047607421875,-0.9995880126953125,108.32962036132812,-27.077850341796875,-41.042816162109375,2023-09-09 22:05:48.2150,1694315148.2152429,0.9371421933174133,-0.08725933730602264,-0.5435264706611633,0.5348815619945526,0.6651154160499573,-0.539627194404602,
0,2023-09-09 22:05:21.6090,02:37,10,1,2023-09-09 22:05:48.7220,1694315148.722108,-0.0003909520455636084,-0.004201136529445648,-0.0030535804107785225,0.02642822265625,-0.0508575439453125,-0.9999237060546875,108.49488830566406,-26.88214111328125,-40.69142150878906,2023-09-09 22:05:48.3150,1694315148.315352,-1.0271698236465454,-0.24059149622917175,-0.8482821583747864,0.3831481337547302,0.7742003798484802,-0.412261962890625,
0,2023-09-09 22:05:21.6090,02:37,10,1,2023-09-09 22:05:48.8100,1694315148.810357,-0.0005928196478635073,-0.005148955620825291,-0.0018783274572342634,0.0253143310546875,-0.0523223876953125,-1.0001678466796875,108.49488830566406,-26.88214111328125,-40.69142150878906,2023-09-09 22:05:48.4150,1694315148.414919,-0.9045759439468384,-0.5827502012252808,-1.6528825759887695,0.17758171260356903,0.886123538017273,-0.4889831244945526,
0,2023-09-09 22:05:21.6090,02:37,10,1,2023-09-09 22:05:48.9090,1694315148.909168,-5.5926382628967986e-05,-0.004047738388180733,-0.005630987696349621,0.0256805419921875,-0.051788330078125,-0.9997100830078125,108.41763305664062,-26.868820190429688,-40.6763916015625,2023-09-09 22:05:48.5150,1694315148.5146809,-4.207703590393066,-0.31492963433265686,-1.6531343460083008,0.06225581094622612,0.7543029189109802,-0.07856760919094086,
0,2023-09-09 22:05:21.6090,02:37,10,1,2023-09-09 22:05:49.0100,1694315149.010335,-0.00024501082953065634,-0.004119910299777985,-0.003869839245453477,0.0243072509765625,-0.0517730712890625,-0.999755859375,108.25802612304688,-26.620086669921875,-40.65843200683594,2023-09-09 22:05:48.6140,1694315148.6144838,0.901639997959137,0.23881277441978455,0.5490500926971436,-0.10879519954323769,1.0551451444625854,0.20126336812973022,
0,2023-09-09 22:05:21.6090,02:37,10,1,2023-09-09 22:05:49.1220,1694315149.122037,-0.001472728094086051,-0.007757788058370352,-0.0020785972010344267,0.0251007080078125,-0.05133056640625,-1.0006256103515625,108.42556762695312,-26.94891357421875,-40.68077087402344,2023-09-09 22:05:48.7140,1694315148.7143579,1.6783097982406616,-0.20604124665260315,0.06071961671113968,0.06187432259321213,0.9486234784126282,-0.10246285796165466,
0,2023-09-09 22:05:21.6090,02:37,10,1,2023-09-09 22:05:49.2100,1694315149.209625,-0.0008562062866985798,-0.004918059334158897,-0.0022386531345546246,0.02569580078125,-0.052093505859375,-0.9996337890625,108.42556762695312,-26.94891357421875,-40.68077087402344,2023-09-09 22:05:48.8140,1694315148.814159,0.4221288561820984,-0.07159289717674255,-0.0250234492123127,0.015594426542520523,0.9694671034812927,-0.22039800882339478,
0,2023-09-09 22:05:21.6090,02:37,10,1,2023-09-09 22:05:49.3100,1694315149.3097482,-0.0021105550695210695,-0.00421471893787384,-0.0030775489285588264,0.02520751953125,-0.051971435546875,-0.9994354248046875,108.38310241699219,-26.826004028320312,-40.63368225097656,2023-09-09 22:05:48.9140,1694315148.913993,0.12345553934574127,0.019980568438768387,0.07358957827091217,0.024505550041794777,0.9525145888328552,-0.2559967637062073,
0,2023-09-09 22:05:21.6090,02:37,10,1,2023-09-09 22:05:49.4220,1694315149.421939,-0.004006992094218731,-0.0031819448340684175,-0.005884520709514618,0.024810791015625,-0.0513916015625,-0.999176025390625,108.45834350585938,-26.791351318359375,-40.76466369628906,2023-09-09 22:05:49.0140,1694315149.014017,0.08295752108097076,0.020205073058605194,0.08917619287967682,0.034591637551784515,0.9868468642234802,-0.2506409287452698,
0,2023-09-09 22:05:21.6090,02:37,10,1,2023-09-09 22:05:49.5100,1694315149.510137,0.0016106797847896814,-0.0022836606949567795,-0.0014495585346594453,0.02630615234375,-0.0508880615234375,-1.000335693359375,108.45834350585938,-26.791351318359375,-40.76466369628906,2023-09-09 22:05:49.1140,1694315149.113975,0.06313567608594894,-0.005023185163736343,0.007021102588623762,0.040939271450042725,0.9836881756782532,-0.2576752007007599,
0,2023-09-09 22:05:21.6090,02:37,10,1,2023-09-09 22:05:49.6090,1694315149.609468,-0.0032112395856529474,-0.0052118063904345036,-0.004452272783964872,0.0247650146484375,-0.0510101318359375,-0.9997711181640625,108.32530212402344,-26.988998413085938,-40.73765563964844,2023-09-09 22:05:49.2140,1694315149.213554,0.11597592383623123,-0.012002400122582912,0.021176369860768318,0.046112023293972015,0.9572447538375854,-0.2626343071460724,
