SessionID,SessionDate,SessionDuration,SessionFrequency,RecordID,Timestamp,timeIntervalSince1970,GyroX,GyroY,GyroZ,AccX,AccY,AccZ,MagX,MagY,MagZ,WatchTimestamp,WatchtImeIntervalSince1970,WatchGyroX,WatchGyroY,WatchGyroZ,WatchAccX,WatchAccY,WatchAccZ
0,2023-09-09 22:20:34.0510,02:17,10,1,2023-09-09 22:20:34.1600,1694316034.160345,-0.0032490564044564962,0.0003081277245655656,-0.004240018781274557,-0.000213623046875,-0.0691070556640625,-1.0200958251953125,104.49320983886719,-27.73602294921875,-37.89579772949219,2023-09-09 22:20:33.8120,1694316033.811942,-0.05617280676960945,0.06999872624874115,0.012916109524667263,-0.1215972900390625,-0.3368988335132599,-0.9346160292625427,
0,2023-09-09 22:20:34.0510,02:17,10,1,2023-09-09 22:20:34.2600,1694316034.260456,-0.0012841762509196997,-0.0060296631418168545,-0.0056829191744327545,0.0005950927734375,-0.0697021484375,-0.9949951171875,104.35353088378906,-27.500015258789062,-38.824371337890625,2023-09-09 22:20:33.9140,1694316033.913588,-0.03608771041035652,0.05347367748618126,0.01770976558327675,-0.11897280067205429,-0.3503876328468323,-0.9252318739891052,
0,2023-09-09 22:20:34.0510,02:17,10,1,2023-09-09 22:20:34.3610,1694316034.360532,-0.008743956685066223,-0.031805068254470825,-0.004712196998298168,-0.000579833984375,-0.0641021728515625,-0.9848480224609375,104.30953979492188,-27.45947265625,-38.854400634765625,2023-09-09 22:20:34.0120,1694316034.0122008,-0.04825109988451004,0.02902466244995594,-0.04076728969812393,-0.1198272779583931,-0.3500366508960724,-0.9291686415672302,
0,2023-09-09 22:20:34.0510,02:17,10,1,2023-09-09 22:20:34.4600,1694316034.459683,-0.008743956685066223,-0.031805068254470825,-0.004712196998298168,-0.0070037841796875,-0.0638885498046875,-0.9698486328125,104.32142639160156,-27.442169189453125,-38.6112060546875,2023-09-09 22:20:34.1110,1694316034.111285,-0.04693543538451195,-0.01800210028886795,0.0033246350940316916,-0.1173553541302681,-0.3415985703468323,-0.9065398573875427,
0,2023-09-09 22:20:34.0510,02:17,10,1,2023-09-09 22:20:34.5600,1694316034.55988,0.007369232829660177,0.0015598133904859424,-0.0051779840141534805,-0.0028228759765625,-0.0649566650390625,-0.99884033203125,104.44148254394531,-27.743087768554688,-38.591888427734375,2023-09-09 22:20:34.2110,1694316034.21111,0.019548386335372925,-0.04153725504875183,-0.00553536880761385,-0.1094665676355362,-0.3342285454273224,-0.9231719970703125,
0,2023-09-09 22:20:34.0510,02:17,10,1,2023-09-09 22:20:34.6600,1694316034.6600919,-0.007964715361595154,-0.005633384454995394,-0.0018588864477351308,0.00048828125,-0.062103271484375,-0.9996185302734375,104.55661010742188,-27.3720703125,-39.18223571777344,2023-09-09 22:20:34.3110,1694316034.311024,-0.06937722116708755,0.008940567262470722,-0.0037205577827990055,-0.1293640285730362,-0.3326568901538849,-0.9355468153953552,
0,2023-09-09 22:20:34.0510,02:17,10,1,2023-09-09 22:20:34.7600,1694316034.7604098,-0.0016924388473853469,-8.122641156660393e-05,-0.004479703027755022,-0.0008087158203125,-0.0638885498046875,-0.996124267578125,104.45835876464844,-27.2735595703125,-38.93977355957031,2023-09-09 22:20:34.4110,1694316034.410723,-0.00873331818729639,-0.013422795571386814,0.0016805990599095821,-0.0881195142865181,-0.3307953476905823,-0.9263458251953125,
0,2023-09-09 22:20:34.0510,02:17,10,1,2023-09-09 22:20:34.8600,1694316034.86034,-0.003224289044737816,0.0012807141756638885,-0.0027134947013109922,0.004547119140625,-0.0625,-0.999603271484375,104.20944213867188,-27.412612915039062,-39.156585693359375,2023-09-09 22:20:34.5110,1694316034.510659,-0.02895476669073105,0.020613601431250572,-0.006093534175306559,-0.1191864162683487,-0.3279114067554474,-0.9564513564109802,
0,2023-09-09 22:20:34.0510,02:17,10,1,2023-09-09 22:20:34.9600,1694316034.9603028,-0.00020133497309871018,-0.004042412154376507,-0.0037382792215794325,-0.0014495849609375,-0.0654449462890625,-0.9898834228515625,104.34060668945312,-27.381500244140625,-39.27445983886719,2023-09-09 22:20:34.6100,1694316034.6104379,0.004039335064589977,0.03189142420887947,-0.018711691722273827,-0.1278991922736168,-0.3234710991382599,-0.935882568359375,
0,2023-09-09 22:20:34.0510,02:17,10,1,2023-09-09 22:20:35.0630,1694316035.063241,5.5660068028373644e-05,-0.006412891671061516,-0.004150802735239267,0.0021209716796875,-0.0656890869140625,-0.99749755859375,104.20539855957031,-27.298919677734375,-39.3165283203125,2023-09-09 22:20:34.7110,1694316034.710608,0.05170572176575661,-0.03155692294239998,0.010529250837862492,-0.1172943264245987,-0.3243561387062073,-0.930145263671875,
0,2023-09-09 22:20:34.0510,02:17,10,1,2023-09-09 22:20:35.1630,1694316035.16314,-0.00321949552744627,-0.002292981604114175,-0.0032780850306153297,0.0001678466796875,-0.06732177734375,-0.9966583251953125,104.37336730957031,-27.563568115234375,-38.77534484863281,2023-09-09 22:20:34.8100,1694316034.810303,0.006590110715478659,-0.03147103637456894,-0.012069234624505043,-0.1152649000287056,-0.3173828721046448,-0.92352294921875,
0,2023-09-09 22:20:34.0510,02:17,10,1,2023-09-09 22:20:35.2500,1694316035.250039,0.0005478122038766742,-0.007056311704218388,-0.0019022959750145674,0.0005340576171875,-0.067291259765625,-0.9977264404296875,104.52793884277344,-27.685943603515625,-38.48699951171875,2023-09-09 22:20:34.9100,1694316034.910181,-0.08560805767774582,-0.030865304172039032,-0.0028799641877412796,-0.1085815504193306,-0.3106995224952698,-0.9413604736328125,
0,2023-09-09 22:20:34.0510,02:17,10,1,2023-09-09 22:20:35.3510,1694316035.350574,-0.00112438655924052,-0.003929493948817253,-0.00544456671923399,-0.000640869140625,-0.0662841796875,-0.9967041015625,104.20938110351562,-27.430816650390625,-38.98602294921875,2023-09-09 22:20:35.0100,1694316035.009861,-0.03891858458518982,0.03148728609085083,0.01809176430106163,-0.10839845985174179,-0.3140411972999573,-0.9527434706687927,
0,2023-09-09 22:20:34.0510,02:17,10,1,2023-09-09 22:20:35.4610,1694316035.461474,-0.0024682176299393177,-0.005449626594781876,-0.0047119311057031155,0.001678466796875,-0.067474365234375,-0.997650146484375,104.50700378417969,-27.733413696289062,-38.83232116699219,2023-09-09 22:20:35.1100,1694316035.109731,0.007712433580309153,0.018900923430919647,0.014116927981376648,-0.1190643459558487,-0.3200378715991974,-0.9422149062156677,
0,2023-09-09 22:20:34.0510,02:17,10,1,2023-09-09 22:20:35.5630,1694316035.562876,-0.001062068622559309,-0.004544151946902275,-0.004399542231112719,0.00177001953125,-0.0673828125,-0.999755859375,104.47634887695312,-27.480865478515625,-38.92689514160156,2023-09-09 22:20:35.2100,1694316035.209643,-0.03898150101304054,0.018428610637784004,0.002397122560068965,-0.1192627027630806,-0.3136292099952698,-0.9270782470703125,
0,2023-09-09 22:20:34.0510,02:17,10,1,2023-09-09 22:20:35.6510,1694316035.650902,-0.0013483584625646472,-0.005106078926473856,-0.0033475933596491814,-0.0015106201171875,-0.0660552978515625,-0.998260498046875,104.56942749023438,-27.460708618164062,-38.85490417480469,2023-09-09 22:20:35.3090,1694316035.3094969,-0.0671946331858635,-0.005430117249488831,-0.031141329556703568,-0.1279907375574112,-0.3185730576515198,-0.91949462890625,
0,2023-09-09 22:20:34.0510,02:17,10,1,2023-09-09 22:20:35.7500,1694316035.75,0.0018548916559666395,-0.004640824627131224,-0.005254683084785938,0.0012359619140625,-0.0680999755859375,-0.9976043701171875,104.31967163085938,-27.331924438476562,-39.1549072265625,2023-09-09 22:20:35.4090,1694316035.4093761,-0.3028341233730316,-0.01802646927535534,-0.21015578508377075,-0.1591796875,-0.3278045654296875,-0.8830260634422302,
0,2023-09-09 22:20:34.0510,02:17,10,1,2023-09-09 22:20:35.8500,1694316035.85037,-0.0011150655336678028,-0.004405933897942305,-0.0038663772866129875,0.00048828125,-0.06732177734375,-1.0001983642578125,104.27203369140625,-27.449615478515625,-39.34870910644531,2023-09-09 22:20:35.5090,1694316035.509125,-0.9321448802947998,-0.13952480256557465,-0.6420491337776184,-0.2168121412396431,-0.3036041855812073,-0.78173828125,
0,2023-09-09 22:20:34.0510,02:17,10,1,2023-09-09 22:20:35.9510,1694316035.951195,-0.0023033679462969303,-0.0028687571175396442,-0.0012591425329446793,0.0010223388671875,-0.0676422119140625,-0.9989471435546875,104.40876770019531,-27.295333862304688,-39.35777282714844,2023-09-09 22:20:35.6090,1694316035.608862,-1.0211418867111206,-0.2997426986694336,-1.2951347827911377,-0.2571258544921875,-0.22898870706558228,-0.8384703993797302,
0,2023-09-09 22:20:34.0510,02:17,10,1,2023-09-09 22:20:36.0500,1694316036.050309,-0.0010982876410707831,-0.0029518476221710443,-0.004536162130534649,0.0021209716796875,-0.0671539306640625,-1.0002593994140625,104.20088195800781,-27.265304565429688,-39.5400390625,2023-09-09 22:20:35.7090,1694316035.708836,-1.9712287187576294,0.010771489702165127,-2.0495083332061768,-0.3249511569738388,-0.01583869941532612,-0.9796905517578125,
0,2023-09-09 22:20:34.0510,02:17,10,1,2023-09-09 22:20:36.1520,1694316036.151623,-0.0019859191961586475,-0.00222027744166553,-0.0034559841733425856,-0.001007080078125,-0.06744384765625,-0.998016357421875,104.41670227050781,-27.42462158203125,-39.63807678222656,2023-09-09 22:20:35.8090,1694316035.808676,-2.0191917419433594,0.7724917531013489,-2.4891440868377686,-0.3141631707549095,0.43687430024147034,-1.0960540771484375,
0,2023-09-09 22:20:34.0510,02:17,10,1,2023-09-09 22:20:36.2510,1694316036.2509022,-0.0018362496048212051,-0.004618720151484013,-0.00472524669021368,0.0005645751953125,-0.0683746337890625,-1.0008544921875,104.3878173828125,-27.277938842773438,-39.60040283203125,2023-09-09 22:20:35.9090,1694316035.908519,-3.595881700515747,1.3325163125991821,-2.6043894290924072,-0.23823541775345802,0.5239714682102203,-0.7719574570655823,
0,2023-09-09 22:20:34.0510,02:17,10,1,2023-09-09 22:20:36.3510,1694316036.350713,-0.0019262643763795495,-0.004778243601322174,-0.006727410946041346,0.0005645751953125,-0.0688018798828125,-0.9992218017578125,104.34159851074219,-27.176834106445312,-39.52862548828125,2023-09-09 22:20:36.0080,1694316036.008247,-3.1598265171051025,1.3644835948944092,-1.7966139316558838,-0.02064506709575653,0.9250640273094177,-0.6841889023780823,
0,2023-09-09 22:20:34.0510,02:17,10,1,2023-09-09 22:20:36.4500,1694316036.4501739,-0.002426672261208296,-0.004971322603523731,-0.0038456046022474766,0.000274658203125,-0.0691680908203125,-1.00006103515625,104.37728881835938,-27.235305786132812,-39.49853515625,2023-09-09 22:20:36.1180,1694316036.118205,-1.1057794094085693,0.8649463057518005,-0.2561553418636322,0.43707282841205597,1.0720824003219604,-0.6698608994483948,
0,2023-09-09 22:20:34.0510,02:17,10,1,2023-09-09 22:20:36.5630,1694316036.5628061,0.0008205199264921248,-0.004605937283486128,-0.0036309538409113884,-0.0009002685546875,-0.068695068359375,-0.9995880126953125,104.25874328613281,-27.255050659179688,-39.412017822265625,2023-09-09 22:20:36.2080,1694316036.207995,0.5458234548568726,-0.826597273349762,-0.3826824128627777,0.20755013823509216,0.4086150527000427,-0.6028290390968323,
0,2023-09-09 22:20:34.0510,02:17,10,1,2023-09-09 22:20:36.6510,1694316036.651439,-0.0035364115610718727,-0.004945756401866674,-0.00395692465826869,0.0003814697265625,-0.0679931640625,-0.9994049072265625,104.31536865234375,-27.351821899414062,-39.27958679199219,2023-09-09 22:20:36.3080,1694316036.307967,0.15599365532398224,-0.514482855796814,-0.06670248508453369,-0.21589653193950653,0.8169096112251282,-0.6000824570655823,
0,2023-09-09 22:20:34.0510,02:17,10,1,2023-09-09 22:20:36.7510,1694316036.7514791,-0.0035294874105602503,-0.0018695390317589045,-0.004668787587434053,0.0004425048828125,-0.06787109375,-0.9993896484375,104.26898193359375,-27.27294921875,-39.12928771972656,2023-09-09 22:20:36.4080,1694316036.407722,-0.165083110332489,0.1065579354763031,0.19780223071575165,-0.17973320186138153,0.5943297147750854,-0.6969299912452698,
0,2023-09-09 22:20:34.0510,02:17,10,1,2023-09-09 22:20:36.8510,1694316036.851481,-0.0015124091878533363,-0.0028213527984917164,-0.0030455910600721836,-0.0003204345703125,-0.0678558349609375,-0.9981842041015625,104.3519287109375,-27.304244995117188,-39.14146423339844,2023-09-09 22:20:36.5080,1694316036.507617,-0.265220582485199,0.32838791608810425,0.25511568784713745,-0.11970510333776474,0.7494810223579407,-0.65252685546875,
0,2023-09-09 22:20:34.0510,02:17,10,1,2023-09-09 22:20:36.9630,1694316036.962925,-0.002198173198848963,-0.0052472264505922794,-0.0049438923597335815,-0.000701904296875,-0.0679931640625,-0.9992828369140625,104.21095275878906,-27.335586547851562,-39.02275085449219,2023-09-09 22:20:36.6070,1694316036.607417,0.09190567582845688,0.009590910747647285,0.06024577468633652,-0.09144584834575653,0.7856138944625854,-0.6448975205421448,
0,2023-09-09 22:20:34.0510,02:17,10,1,2023-09-09 22:20:37.0630,1694316037.06286,-0.001329982653260231,-0.003775030840188265,-0.0034136399626731873,-0.0002593994140625,-0.0682525634765625,-0.9981842041015625,104.37648010253906,-27.498062133789062,-38.94952392578125,2023-09-09 22:20:36.7070,1694316036.707179,0.2073933184146881,-0.0034667011350393295,0.12495583295822144,-0.11285393685102463,0.7449797987937927,-0.6544495224952698,
0,2023-09-09 22:20:34.0510,02:17,10,1,2023-09-09 22:20:37.1630,1694316037.162669,-1.1451592399680521e-05,-0.004883171990513802,-0.004536961205303669,0.0005035400390625,-0.069122314453125,-1.002166748046875,104.17758178710938,-26.971115112304688,-39.4403076171875,2023-09-09 22:20:36.8070,1694316036.80717,0.3062376081943512,0.08311639726161957,0.10356318950653076,-0.10566706210374832,0.7586973905563354,-0.6909638047218323,
0,2023-09-09 22:20:34.0510,02:17,10,1,2023-09-09 22:20:37.2630,1694316037.262796,-0.0038866172544658184,-0.004329234827309847,-0.004797684494405985,-0.0001373291015625,-0.0691986083984375,-0.998626708984375,104.08792114257812,-27.165725708007812,-39.20770263671875,2023-09-09 22:20:36.9070,1694316036.906928,0.0900774821639061,0.12739597260951996,0.2841651141643524,-0.06245415657758713,0.7107847929000854,-0.7070465087890625,
0,2023-09-09 22:20:34.0510,02:17,10,1,2023-09-09 22:20:37.3630,1694316037.3632522,-0.003935352899134159,-0.0046730488538742065,-0.0029031119775027037,0.001007080078125,-0.06976318359375,-0.9991302490234375,104.15676879882812,-27.2708740234375,-39.381134033203125,2023-09-09 22:20:37.0070,1694316037.006631,0.2202165126800537,0.0004203161224722862,0.5185109376907349,-0.015579143539071083,0.7062681913375854,-0.706817626953125,
0,2023-09-09 22:20:34.0510,02:17,10,1,2023-09-09 22:20:37.4510,1694316037.450501,-0.0021108214277774096,-0.005338040180504322,0.002466087229549885,0.0008697509765625,-0.0677490234375,-0.998809814453125,104.23753356933594,-27.295196533203125,-39.57307434082031,2023-09-09 22:20:37.1060,1694316037.106488,-0.14997512102127075,-0.11096346378326416,0.1926829069852829,0.00022893818095326424,0.690872073173523,-0.7218170166015625,
0,2023-09-09 22:20:34.0510,02:17,10,1,2023-09-09 22:20:37.5510,1694316037.5512738,-0.003543335711583495,-0.003490072675049305,-0.00043063313933089375,-0.000762939453125,-0.0677947998046875,-0.9966888427734375,104.14466857910156,-27.425338745117188,-39.32691955566406,2023-09-09 22:20:37.2060,1694316037.2064362,0.06141268089413643,0.05520939454436302,0.03505243733525276,-0.0016326354816555977,0.7162932753562927,-0.7172089219093323,
0,2023-09-09 22:20:34.0510,02:17,10,1,2023-09-09 22:20:37.6500,1694316037.650162,-0.004163586068898439,-0.003019491909071803,-0.0026405241806060076,0.0009765625,-0.06719970703125,-0.997528076171875,104.24494934082031,-27.481231689453125,-39.25190734863281,2023-09-09 22:20:37.3060,1694316037.3061981,0.192104771733284,0.01632404699921608,-0.01956879533827305,0.01470954529941082,0.6964872479438782,-0.7121124267578125,
0,2023-09-09 22:20:34.0510,02:17,10,1,2023-09-09 22:20:37.7500,1694316037.750229,-0.0030394657514989376,-0.0038863508962094784,-0.0004468784318305552,0.0022430419921875,-0.0668487548828125,-0.9987030029296875,104.3638916015625,-27.259872436523438,-39.591400146484375,2023-09-09 22:20:37.4060,1694316037.40622,0.05311793461441994,0.13564231991767883,0.07661788910627365,0.028137268498539925,0.6584319472312927,-0.7305756211280823,
0,2023-09-09 22:20:34.0510,02:17,10,1,2023-09-09 22:20:37.8620,1694316037.862351,-0.004599012900143862,-0.004294081125408411,-0.0033073797821998596,0.0023956298828125,-0.0665283203125,-0.9974517822265625,104.26075744628906,-27.166519165039062,-39.238677978515625,2023-09-09 22:20:37.5060,1694316037.505916,-0.13481849431991577,-0.07568443566560745,-0.09580951184034348,0.04389959014952183,0.686538577079773,-0.7257537841796875,
0,2023-09-09 22:20:34.0510,02:17,10,1,2023-09-09 22:20:37.9630,1694316037.963056,-0.004490888677537441,-0.005365204066038132,-0.0017891116440296173,-0.001373291015625,-0.0675506591796875,-0.9981536865234375,104.25666809082031,-27.22955322265625,-39.2501220703125,2023-09-09 22:20:37.6060,1694316037.605938,-0.05535707622766495,0.015065704472362995,-0.014466778375208378,0.02775578945875168,0.688766360282898,-0.7186432480812073,
0,2023-09-09 22:20:34.0510,02:17,10,1,2023-09-09 22:20:38.0510,1694316038.050791,-0.0035534559283405542,-0.006887467112392187,-0.006743922829627991,0.00115966796875,-0.0670166015625,-1.0005645751953125,104.41561889648438,-27.330230712890625,-39.01318359375,2023-09-09 22:20:37.7050,1694316037.705461,-0.19265688955783844,-0.02188432589173317,-0.01727854460477829,0.034225521609187126,0.6892088055610657,-0.71173095703125,
0,2023-09-09 22:20:34.0510,02:17,10,1,2023-09-09 22:20:38.1510,1694316038.1511102,-0.00515854312106967,-0.006380667444318533,-0.003896470880135894,0.0014190673828125,-0.0674591064453125,-1.0005340576171875,104.18255615234375,-27.10650634765625,-39.13441467285156,2023-09-09 22:20:37.8050,1694316037.805332,-0.14949889481067657,-0.047535624355077744,-0.04263656586408615,0.02284247800707817,0.716140627861023,-0.6988678574562073,
0,2023-09-09 22:20:34.0510,02:17,10,1,2023-09-09 22:20:38.2510,1694316038.250783,-0.004274373408406973,-0.003117762738838792,-0.004055195488035679,-0.00067138671875,-0.066375732421875,-0.995513916015625,104.10630798339844,-27.288894653320312,-39.24018859863281,2023-09-09 22:20:37.9050,1694316037.905295,-0.14493750035762787,0.004347679205238819,-0.011794863268733025,0.011367859318852425,0.7236785292625427,-0.6881409287452698,
0,2023-09-09 22:20:34.0510,02:17,10,1,2023-09-09 22:20:38.3510,1694316038.3512511,-0.0025161546654999256,-0.00598492193967104,-0.003084206720814109,0.0003814697265625,-0.066253662109375,-0.997802734375,104.24822998046875,-27.438674926757812,-39.26580810546875,2023-09-09 22:20:38.0050,1694316038.005182,-0.13057519495487213,0.0026957206428050995,0.011461790651082993,0.016082825139164925,0.7340086698532104,-0.6744537949562073,
0,2023-09-09 22:20:34.0510,02:17,10,1,2023-09-09 22:20:38.4510,1694316038.451277,-0.004448011517524719,-0.004122573416680098,-0.0039044604636728764,0.0008697509765625,-0.065704345703125,-0.9981842041015625,104.4315185546875,-27.283676147460938,-39.34375,2023-09-09 22:20:38.1050,1694316038.1049008,-0.11002878099679947,0.009431387297809124,-0.0005784271634183824,0.017593443393707275,0.750930666923523,-0.662979245185852,
0,2023-09-09 22:20:34.0510,02:17,10,1,2023-09-09 22:20:38.5510,1694316038.550902,-0.0002918824611697346,-0.003495398908853531,-0.0028186896815896034,0.0020904541015625,-0.0657196044921875,-0.998626708984375,104.34945678710938,-27.552001953125,-39.411163330078125,2023-09-09 22:20:38.2050,1694316038.204848,-0.11829696595668793,-0.02612234652042389,0.009029659442603588,0.017501890659332275,0.7514342665672302,-0.6558685898780823,
0,2023-09-09 22:20:34.0510,02:17,10,1,2023-09-09 22:20:38.6510,1694316038.650507,-0.0007677893154323101,-0.005000350996851921,-0.0029502499382942915,-3.0517578125e-05,-0.0670623779296875,-0.996551513671875,104.33123779296875,-27.485092163085938,-39.09492492675781,2023-09-09 22:20:38.3050,1694316038.304543,-0.1907908022403717,0.041456833481788635,0.0354994460940361,0.014679012820124626,0.753677248954773,-0.649078369140625,
0,2023-09-09 22:20:34.0510,02:17,10,1,2023-09-09 22:20:38.7620,1694316038.761623,-0.0015456987312063575,-0.005102084018290043,-0.002326537622138858,-0.00030517578125,-0.06707763671875,-0.9976806640625,104.35366821289062,-27.592559814453125,-38.590667724609375,2023-09-09 22:20:38.4040,1694316038.404498,-0.07295718044042587,0.04056640714406967,0.06381713598966599,0.024810826405882835,0.783126711845398,-0.6305847764015198,
0,2023-09-09 22:20:34.0510,02:17,10,1,2023-09-09 22:20:38.8500,1694316038.850097,0.0005568669876083732,-0.004018976353108883,-0.0019406455103307962,0.0001678466796875,-0.06671142578125,-0.998382568359375,104.37525939941406,-27.553131103515625,-38.957183837890625,2023-09-09 22:20:38.5040,1694316038.504442,0.05139193683862686,0.008398879319429398,0.02817738614976406,0.033645687624812126,0.7699583768844604,-0.632598876953125,
0,2023-09-09 22:20:34.0510,02:17,10,1,2023-09-09 22:20:38.9630,1694316038.962645,-0.004090349189937115,-0.004618453793227673,-0.0032676986884325743,0.001220703125,-0.068756103515625,-1.0002899169921875,104.26808166503906,-27.587203979492188,-39.01434326171875,2023-09-09 22:20:38.6040,1694316038.604187,-0.04047520458698273,0.01668437197804451,0.012474490329623222,0.041580259799957275,0.7693633437156677,-0.630539059638977,
0,2023-09-09 22:20:34.0510,02:17,10,1,2023-09-09 22:20:39.0640,1694316039.0636191,-0.002258360618725419,-0.005405151750892401,-0.002433063928037882,-0.000335693359375,-0.06842041015625,-0.997711181640625,104.45219421386719,-27.638641357421875,-38.76556396484375,2023-09-09 22:20:38.7040,1694316038.703909,-0.01609376259148121,-0.009768140502274036,-0.0010154519695788622,0.03744512051343918,0.7716368436813354,-0.633392333984375,
0,2023-09-09 22:20:34.0510,02:17,10,1,2023-09-09 22:20:39.1510,1694316039.151372,0.0007898935582488775,-0.006117547396570444,-0.0016871124971657991,0.0009613037109375,-0.067108154296875,-0.997802734375,104.31684875488281,-27.538619995117188,-39.06019592285156,2023-09-09 22:20:38.8040,1694316038.8037992,-0.16634424030780792,0.02074502781033516,-0.0060818493366241455,0.030319269746541977,0.7622374892234802,-0.6307831406593323,
0,2023-09-09 22:20:34.0510,02:17,10,1,2023-09-09 22:20:39.2610,1694316039.260642,-0.0019329222850501537,-0.002858903491869569,-0.0020098877139389515,0.0008544921875,-0.0667572021484375,-0.999847412109375,104.34733581542969,-27.49395751953125,-39.10664367675781,2023-09-09 22:20:38.9040,1694316038.9036388,-0.11504078656435013,0.03732307255268097,0.03162674605846405,0.03771977871656418,0.7982177138328552,-0.6121521592140198,
0,2023-09-09 22:20:34.0510,02:17,10,1,2023-09-09 22:20:39.3500,1694316039.350321,-0.004560130648314953,-0.003628823207691312,-0.0036373452749103308,-0.00152587890625,-0.067901611328125,-0.9991302490234375,104.433837890625,-27.3775634765625,-39.00935363769531,2023-09-09 22:20:39.0030,1694316039.003405,-0.0036132584791630507,0.0033756252378225327,1.4059536624699831e-05,0.04399113729596138,0.794509768486023,-0.6035919785499573,
0,2023-09-09 22:20:34.0510,02:17,10,1,2023-09-09 22:20:39.4510,1694316039.451005,-0.0004450142150744796,-0.007744472473859787,-0.0017057546647265553,-0.000762939453125,-0.06781005859375,-0.999969482421875,104.27970886230469,-27.248397827148438,-38.8309326171875,2023-09-09 22:20:39.1030,1694316039.103355,0.004574963357299566,-0.010719021782279015,-0.0032695180270820856,0.042007505893707275,0.7907561659812927,-0.6066284775733948,
0,2023-09-09 22:20:34.0510,02:17,10,1,2023-09-09 22:20:39.5510,1694316039.551073,-0.0015630092239007354,-0.0022064289078116417,-0.0036192359402775764,-0.0009613037109375,-0.0681915283203125,-0.9981842041015625,104.2734375,-27.106826782226562,-39.04582214355469,2023-09-09 22:20:39.2030,1694316039.203115,-0.11560877412557602,0.012635435909032822,-0.005942499730736017,0.03855901211500168,0.7842559218406677,-0.6082153916358948,
0,2023-09-09 22:20:34.0510,02:17,10,1,2023-09-09 22:20:39.6510,1694316039.6509461,0.0007456850726157427,-0.0035502600949257612,-0.00024394555657636374,-0.001007080078125,-0.0679931640625,-0.999176025390625,104.26412963867188,-27.137176513671875,-39.14076232910156,2023-09-09 22:20:39.3030,1694316039.303073,-0.014273758977651596,0.017780663445591927,0.022737814113497734,0.04156499356031418,0.805496096611023,-0.5974121689796448,
0,2023-09-09 22:20:34.0510,02:17,10,1,2023-09-09 22:20:39.7500,1694316039.750286,-0.0005347627447918057,-0.0032373385038226843,-0.004274906124919653,0.0009918212890625,-0.0683135986328125,-0.9995574951171875,104.35409545898438,-27.473281860351562,-39.03472900390625,2023-09-09 22:20:39.4030,1694316039.4027681,0.030378663912415504,-0.003945671021938324,-0.0010012041311711073,0.04650884121656418,0.799178957939148,-0.5985565781593323,
0,2023-09-09 22:20:34.0510,02:17,10,1,2023-09-09 22:20:39.8510,1694316039.8508492,-0.0014442323008552194,-0.00900015328079462,-0.00108284130692482,-7.62939453125e-05,-0.068756103515625,-0.9986572265625,104.308837890625,-27.381271362304688,-38.92718505859375,2023-09-09 22:20:39.5030,1694316039.502787,0.0023729284293949604,0.011429157108068466,0.013948949985206127,0.04336551949381828,0.7969816327095032,-0.6009216904640198,
0,2023-09-09 22:20:34.0510,02:17,10,1,2023-09-09 22:20:39.9500,1694316039.9501839,-0.0022596921771764755,-0.0030069751664996147,-0.004178499802947044,-0.0005950927734375,-0.0692138671875,-0.9982452392578125,104.26107788085938,-27.347946166992188,-39.15565490722656,2023-09-09 22:20:39.6020,1694316039.602426,0.0002376725897192955,-0.005753691308200359,-0.008998343721032143,0.045089781284332275,0.794143557548523,-0.6011810898780823,
0,2023-09-09 22:20:34.0510,02:17,10,1,2023-09-09 22:20:40.0510,1694316040.051447,-0.0018170748371630907,-0.004116448108106852,-0.003695402294397354,-9.1552734375e-05,-0.067474365234375,-0.9992218017578125,104.18197631835938,-27.372634887695312,-39.18505859375,2023-09-09 22:20:39.7020,1694316039.702322,-0.007773381657898426,0.0016405759379267693,0.003688822267577052,0.04400641843676567,0.7956846952438354,-0.598709225654602,
0,2023-09-09 22:20:34.0510,02:17,10,1,2023-09-09 22:20:40.1510,1694316040.1509728,0.00011424961121520028,-0.006343116983771324,-0.00018615495355334133,-0.0001373291015625,-0.067596435546875,-0.9991607666015625,104.31442260742188,-27.26300048828125,-39.1873779296875,2023-09-09 22:20:39.8020,1694316039.8022032,-0.025146113708615303,0.01160053163766861,0.013468548655509949,0.046890318393707275,0.8031004667282104,-0.5998077988624573,
0,2023-09-09 22:20:34.0510,02:17,10,1,2023-09-09 22:20:40.2630,1694316040.262676,-0.004261057823896408,-0.006332464516162872,-0.004376372788101435,0.001800537109375,-0.0688323974609375,-1.0009765625,104.30195617675781,-27.398818969726562,-39.27166748046875,2023-09-09 22:20:39.9020,1694316039.902172,-0.021756108850240707,0.0003946162760257721,0.003975544590502977,0.04516609013080597,0.7959898710250854,-0.598037838935852,
0,2023-09-09 22:20:34.0510,02:17,10,1,2023-09-09 22:20:40.3510,1694316040.351136,0.0004620584368240088,-0.0037702370900660753,-0.001284708851017058,-0.0002593994140625,-0.067291259765625,-0.998077392578125,104.36141967773438,-27.390472412109375,-38.978363037109375,2023-09-09 22:20:40.0020,1694316040.001916,0.008161641657352448,0.007314440328627825,0.009290249086916447,0.046981871128082275,0.804183840751648,-0.5913086533546448,
0,2023-09-09 22:20:34.0510,02:17,10,1,2023-09-09 22:20:40.4510,1694316040.451422,-0.0029467877466231585,-0.0020666129421442747,-0.0014966964954510331,0.000457763671875,-0.068572998046875,-1.0009613037109375,104.375,-27.33599853515625,-39.28196716308594,2023-09-09 22:20:40.1020,1694316040.101536,-0.01241440698504448,0.013228654861450195,0.009322972036898136,0.04748540371656418,0.79534912109375,-0.5950470566749573,
0,2023-09-09 22:20:34.0510,02:17,10,1,2023-09-09 22:20:40.5640,1694316040.563797,-0.0023872575256973505,-0.0030533140525221825,-0.003808320267125964,0.0005340576171875,-0.06756591796875,-0.9993133544921875,104.2462158203125,-27.346282958984375,-39.144622802734375,2023-09-09 22:20:40.2020,1694316040.201633,-0.03883862495422363,0.0009548119269311428,-0.004142868332564831,0.05429084226489067,0.7948302030563354,-0.5925903916358948,
0,2023-09-09 22:20:34.0510,02:17,10,1,2023-09-09 22:20:40.6500,1694316040.650039,-0.0020764668006449938,-0.0046488139778375626,-0.004464523401111364,7.62939453125e-05,-0.067138671875,-0.9989166259765625,104.52165222167969,-27.43603515625,-39.151763916015625,2023-09-09 22:20:40.3020,1694316040.3015308,0.008477559313178062,-0.0008453512564301491,0.0014124521985650063,0.05163579434156418,0.8069151639938354,-0.5923615097999573,
0,2023-09-09 22:20:34.0510,02:17,10,1,2023-09-09 22:20:40.7610,1694316040.7609339,-0.0035454663448035717,-0.0013315805699676275,-0.0030807447619736195,-0.0001068115234375,-0.0674896240234375,-0.9997100830078125,104.29232788085938,-27.291397094726562,-39.18257141113281,2023-09-09 22:20:40.4010,1694316040.401248,-0.0006032206583768129,0.00010073650628328323,-0.006978536024689674,0.04809577390551567,0.808242678642273,-0.5905457139015198,
0,2023-09-09 22:20:34.0510,02:17,10,1,2023-09-09 22:20:40.8520,1694316040.85162,-0.0017411747248843312,-0.00287461606785655,-0.004351338837295771,-0.001129150390625,-0.066680908203125,-0.998779296875,104.40840148925781,-27.338546752929688,-39.11384582519531,2023-09-09 22:20:40.5010,1694316040.501021,-0.020425060763955116,0.0036596516147255898,-0.002288476098328829,0.05064399912953377,0.8035277724266052,-0.5899201035499573,
0,2023-09-09 22:20:34.0510,02:17,10,1,2023-09-09 22:20:40.9510,1694316040.950923,-0.0024647556710988283,-0.004432565066963434,-0.0035028557758778334,-0.00146484375,-0.0677947998046875,-0.999237060546875,104.18511962890625,-27.123779296875,-39.10319519042969,2023-09-09 22:20:40.6010,1694316040.600666,-0.0055986447259783745,-0.011518635787069798,-0.0018995548598468304,0.05253606289625168,0.7997740507125854,-0.5889893770217896,
0,2023-09-09 22:20:34.0510,02:17,10,1,2023-09-09 22:20:41.0640,1694316041.0644798,-0.003335076617076993,-0.004234958905726671,-0.00242214510217309,0.0008392333984375,-0.0676422119140625,-0.9986114501953125,104.27001953125,-27.229110717773438,-39.18414306640625,2023-09-09 22:20:40.7010,1694316040.70066,0.0016541413497179747,-0.0019015613943338394,0.005112048704177141,0.05366520583629608,0.7996215224266052,-0.5910492539405823,
0,2023-09-09 22:20:34.0510,02:17,10,1,2023-09-09 22:20:41.1500,1694316041.150394,-0.0023070964962244034,-0.0051630702801048756,-0.0017323862994089723,3.0517578125e-05,-0.0679931640625,-0.9992828369140625,104.42622375488281,-27.235687255859375,-39.19537353515625,2023-09-09 22:20:40.8000,1694316040.800472,-0.0019481834024190903,0.002402372658252716,-0.00024110457161441445,0.05047611892223358,0.805648684501648,-0.5904236435890198,
0,2023-09-09 22:20:34.0510,02:17,10,1,2023-09-09 22:20:41.2510,1694316041.250865,-0.0032751555554568768,-0.0065255435183644295,-0.003082609036937356,0.000579833984375,-0.067474365234375,-0.9988555908203125,104.39335632324219,-27.222671508789062,-39.08856201171875,2023-09-09 22:20:40.9000,1694316040.900327,0.0259710643440485,-0.0038129128515720367,0.00132190459407866,0.05102543532848358,0.803909182548523,-0.5897827744483948,
0,2023-09-09 22:20:34.0510,02:17,10,1,2023-09-09 22:20:41.3510,1694316041.3508348,-0.0013257216196507215,-0.001829591696150601,-0.004102599807083607,-0.0011138916015625,-0.0663909912109375,-0.999176025390625,104.33888244628906,-27.26397705078125,-39.47407531738281,2023-09-09 22:20:41.0000,1694316041.0001879,0.024593278765678406,-0.005788179114460945,-0.004676133394241333,0.04992682859301567,0.8039244413375854,-0.5921631455421448,
0,2023-09-09 22:20:34.0510,02:17,10,1,2023-09-09 22:20:41.4510,1694316041.451268,-0.0035119105596095324,-0.0008386294357478619,-0.0008841694798320532,0.0008544921875,-0.066070556640625,-0.997314453125,104.42076110839844,-27.223922729492188,-39.34283447265625,2023-09-09 22:20:41.1000,1694316041.100047,-0.01781243458390236,0.0021697455085814,-0.0029887878336012363,0.05212407559156418,0.7991331815719604,-0.5917664170265198,
0,2023-09-09 22:20:34.0510,02:17,10,1,2023-09-09 22:20:41.5510,1694316041.550784,-0.0007696535321883857,-0.00552392890676856,-0.0036967338528484106,0.0008544921875,-0.066070556640625,-0.997314453125,104.24896240234375,-27.196609497070312,-39.4200439453125,2023-09-09 22:20:41.2000,1694316041.199867,-0.009873817674815655,-0.009743371978402138,-0.014963425695896149,0.053024351596832275,0.7991025447845459,-0.5895538926124573,
0,2023-09-09 22:20:34.0510,02:17,10,1,2023-09-09 22:20:41.6500,1694316041.650159,-0.0020927118603140116,-0.006898385938256979,-0.0016884441720321774,-0.0001983642578125,-0.0673065185546875,-0.9987640380859375,104.44691467285156,-27.263641357421875,-39.25579833984375,2023-09-09 22:20:41.3000,1694316041.29979,0.035230476409196854,-0.018901318311691284,-0.014656594954431057,0.04846196994185448,0.8021544814109802,-0.5923309922218323,
0,2023-09-09 22:20:34.0510,02:17,10,1,2023-09-09 22:20:41.7620,1694316041.7623758,-0.004667988512665033,-0.0059897154569625854,-0.003382214577868581,0.00091552734375,-0.068450927734375,-0.9989776611328125,104.50079345703125,-27.393539428710938,-39.10472106933594,2023-09-09 22:20:41.4000,1694316041.399514,-0.007310590706765652,0.006210160441696644,0.00469792727380991,0.04713445156812668,0.798446536064148,-0.594818115234375,
0,2023-09-09 22:20:34.0510,02:17,10,1,2023-09-09 22:20:41.8510,1694316041.850955,-7.74979853304103e-05,-0.00458782771602273,-0.0037579864729195833,0.00091552734375,-0.068450927734375,-0.9989776611328125,104.3443603515625,-27.535018920898438,-39.336669921875,2023-09-09 22:20:41.4990,1694316041.4994369,0.015041119419038296,-0.0019477671012282372,-0.000684088037814945,0.046691976487636566,0.8085784912109375,-0.5943602919578552,
0,2023-09-09 22:20:34.0510,02:17,10,1,2023-09-09 22:20:41.9510,1694316041.950978,-0.00398568669334054,-0.002049835165962577,-0.003600327530875802,0.00140380859375,-0.0671844482421875,-0.998016357421875,104.37448120117188,-27.525161743164062,-39.26148986816406,2023-09-09 22:20:41.5990,1694316041.599097,-0.0024945309851318598,0.003272427711635828,0.0024723235983401537,0.04559331759810448,0.798980712890625,-0.5961915254592896,
0,2023-09-09 22:20:34.0510,02:17,10,1,2023-09-09 22:20:42.0500,1694316042.050222,0.00039175100391730666,-0.006264820229262114,-0.0043707797303795815,-4.57763671875e-05,-0.0677337646484375,-0.998809814453125,104.20121765136719,-27.333770751953125,-39.23699951171875,2023-09-09 22:20:41.6990,1694316041.6991901,0.0055145928636193275,-0.005927328951656818,-0.004557322710752487,0.04800419881939888,0.800460696220398,-0.5953675508499146,
0,2023-09-09 22:20:34.0510,02:17,10,1,2023-09-09 22:20:42.1500,1694316042.150435,-0.003635214874520898,-0.0035156388767063618,-0.0035976641811430454,-0.0001678466796875,-0.0678558349609375,-0.9973907470703125,104.20121765136719,-27.333770751953125,-39.23699951171875,2023-09-09 22:20:41.7990,1694316041.798954,0.015324280597269535,-0.0053628720343112946,-0.004755961708724499,0.048843443393707275,0.798995852470398,-0.5969544053077698,
0,2023-09-09 22:20:34.0510,02:17,10,1,2023-09-09 22:20:42.2510,1694316042.251274,0.0001901497016660869,-0.004734834190458059,-0.003111371072009206,0.000396728515625,-0.0680389404296875,-1.0006866455078125,104.35134887695312,-27.470794677734375,-38.960418701171875,2023-09-09 22:20:41.8990,1694316041.898813,0.01686312071979046,0.0001595914363861084,0.002263565082103014,0.04676823318004608,0.7988280653953552,-0.5960846543312073,
0,2023-09-09 22:20:34.0510,02:17,10,1,2023-09-09 22:20:42.3500,1694316042.350358,0.0008277104352600873,-0.005003014579415321,-0.0028634308837354183,-0.0003662109375,-0.0684661865234375,-0.9988555908203125,104.33340454101562,-27.180755615234375,-38.90460205078125,2023-09-09 22:20:41.9990,1694316041.998636,-0.01614123396575451,0.0026974515058100224,-0.006477029528468847,0.04847724735736847,0.7968748807907104,-0.5953369736671448,
0,2023-09-09 22:20:34.0510,02:17,10,1,2023-09-09 22:20:42.4500,1694316042.4503021,0.0015595471486449242,-0.0028570392169058323,-0.003099386813119054,0.0022125244140625,-0.0664215087890625,-0.9976654052734375,104.28314208984375,-27.2967529296875,-38.768463134765625,2023-09-09 22:20:42.0980,1694316042.0983958,-0.001852242974564433,-0.0051342397928237915,0.0034465412609279156,0.045303426682949066,0.7994688749313354,-0.5965424180030823,
0,2023-09-09 22:20:34.0510,02:17,10,1,2023-09-09 22:20:42.5510,1694316042.5509748,0.0010341054294258356,-0.003820038167759776,-0.0024495755787938833,-0.0013580322265625,-0.0643310546875,-0.997222900390625,104.33279418945312,-27.335784912109375,-38.71928405761719,2023-09-09 22:20:42.1980,1694316042.1982188,-0.007920055650174618,0.0014960994012653828,-0.0032792389392852783,0.04753119871020317,0.7988587617874146,-0.598098635673523,
0,2023-09-09 22:20:34.0510,02:17,10,1,2023-09-09 22:20:42.6510,1694316042.6511369,0.001187237212434411,-0.0027113643009215593,-0.0035305526107549667,-0.0075225830078125,-0.0671539306640625,-0.9906463623046875,104.46257019042969,-27.560867309570312,-38.654693603515625,2023-09-09 22:20:42.2980,1694316042.298074,-0.017951052635908127,0.0038850875571370125,0.0019192183390259743,0.048065248876810074,0.7916868925094604,-0.5986328721046448,
0,2023-09-09 22:20:34.0510,02:17,10,1,2023-09-09 22:20:42.7510,1694316042.7508888,-0.0030948594212532043,-0.0025457157753407955,-0.0029084382113069296,0.0070953369140625,-0.0688629150390625,-1.0037994384765625,104.30345153808594,-27.101211547851562,-38.78694152832031,2023-09-09 22:20:42.3980,1694316042.397921,0.003270147368311882,0.006021076813340187,0.005788358394056559,0.046417269855737686,0.7987821698188782,-0.5951080918312073,
0,2023-09-09 22:20:34.0510,02:17,10,1,2023-09-09 22:20:42.8510,1694316042.8510861,0.0009345032158307731,-0.0032442628871649504,-0.0012357067316770554,0.0009307861328125,-0.0707244873046875,-1.0020599365234375,104.34353637695312,-27.278076171875,-39.066558837890625,2023-09-09 22:20:42.4980,1694316042.4978251,0.0118176294490695,-0.0016260575503110886,0.0015525678172707558,0.04583747684955597,0.798293948173523,-0.5984345078468323,
0,2023-09-09 22:20:34.0510,02:17,10,1,2023-09-09 22:20:42.9500,1694316042.9501019,0.000752875639591366,-0.005307413637638092,-0.0007270429632626474,-0.0037689208984375,-0.072479248046875,-0.9995574951171875,104.34231567382812,-27.438156127929688,-39.11097717285156,2023-09-09 22:20:42.5980,1694316042.597589,-0.011456800624728203,0.003932225983589888,0.004344759043306112,0.048507750034332275,0.7979888319969177,-0.5991516709327698,
0,2023-09-09 22:20:34.0510,02:17,10,1,2023-09-09 22:20:43.0610,1694316043.0608969,-0.003186205867677927,-0.0025446503423154354,-0.0006588660762645304,-0.00091552734375,-0.069793701171875,-0.9995269775390625,104.30195617675781,-27.565475463867188,-39.14808654785156,2023-09-09 22:20:42.6980,1694316042.697503,0.0011235064594075084,-0.0020765308290719986,0.006007603369653225,0.048370420932769775,0.7973021268844604,-0.5961914658546448,
0,2023-09-09 22:20:34.0510,02:17,10,1,2023-09-09 22:20:43.1510,1694316043.1506472,-0.005155613645911217,-0.003111104713752866,-0.003178216516971588,-0.00091552734375,-0.069793701171875,-0.9995269775390625,104.30195617675781,-27.565475463867188,-39.14808654785156,2023-09-09 22:20:42.7970,1694316042.7972121,0.006603226996958256,-0.012472978793084621,-0.013246252201497555,0.049346983432769775,0.7992247343063354,-0.5963287353515625,
0,2023-09-09 22:20:34.0510,02:17,10,1,2023-09-09 22:20:43.2510,1694316043.250795,-0.0009930927772074938,-0.005857622716575861,-0.0011965582380071282,0.0021209716796875,-0.068634033203125,-0.99822998046875,104.34494018554688,-27.557754516601562,-39.37513732910156,2023-09-09 22:20:42.8970,1694316042.897084,-0.023669125512242317,0.015744144096970558,0.009234788827598095,0.048431459814310074,0.7984313368797302,-0.5979005098342896,
0,2023-09-09 22:20:34.0510,02:17,10,1,2023-09-09 22:20:43.3600,1694316043.359559,0.0010996191995218396,-0.0029499835800379515,-0.0047031426802277565,-0.0012054443359375,-0.0667266845703125,-0.9998626708984375,104.49162292480469,-27.640106201171875,-39.23095703125,2023-09-09 22:20:42.9970,1694316042.996953,0.0023448322899639606,-0.003794003278017044,-0.006253723055124283,0.048965517431497574,0.8037108182907104,-0.5949402451515198,
0,2023-09-09 22:20:34.0510,02:17,10,1,2023-09-09 22:20:43.4510,1694316043.451067,-0.001669269404374063,-0.003855191869661212,-0.0020743361674249172,-0.0008697509765625,-0.068695068359375,-0.9983367919921875,104.48092651367188,-27.644210815429688,-38.331329345703125,2023-09-09 22:20:43.0970,1694316043.0967789,-0.01597552001476288,0.0018698740750551224,-0.0014057380612939596,0.05032355338335037,0.7967376708984375,-0.5946808457374573,
0,2023-09-09 22:20:34.0510,02:17,10,1,2023-09-09 22:20:43.5510,1694316043.5506558,-8.202536264434457e-05,-0.003964914008975029,-0.0024615598376840353,-0.0004119873046875,-0.070892333984375,-1.002166748046875,104.33906555175781,-27.500198364257812,-39.27508544921875,2023-09-09 22:20:43.1970,1694316043.1966271,0.009909741580486298,-0.0007349634543061256,-0.00015531742246821523,0.04936223477125168,0.803314208984375,-0.593673825263977,
0,2023-09-09 22:20:34.0510,02:17,10,1,2023-09-09 22:20:43.6500,1694316043.650473,-0.0023899206425994635,-0.005623264703899622,-0.0024232103023678064,-0.001251220703125,-0.068817138671875,-1.0013275146484375,104.43560791015625,-27.444229125976562,-39.16105651855469,2023-09-09 22:20:43.2970,1694316043.296502,-0.005956507287919521,0.0015182038769125938,0.004723693709820509,0.049057044088840485,0.7977445721626282,-0.595916748046875,
0,2023-09-09 22:20:34.0510,02:17,10,1,2023-09-09 22:20:43.7620,1694316043.762436,-0.002444781828671694,-0.007113036699593067,-0.0031973912846297026,0.0009918212890625,-0.0674591064453125,-1.00048828125,104.39790344238281,-27.384033203125,-38.9810791015625,2023-09-09 22:20:43.3960,1694316043.396294,-0.006525491364300251,-0.00020752474665641785,0.0015390189364552498,0.05061345547437668,0.802718997001648,-0.5912628173828125,
0,2023-09-09 22:20:34.0510,02:17,10,1,2023-09-09 22:20:43.8510,1694316043.8505,-0.003034672001376748,-7.723167072981596e-05,-0.003635747591033578,0.0009918212890625,-0.0674591064453125,-1.00048828125,104.34561157226562,-27.400146484375,-39.04205322265625,2023-09-09 22:20:43.4970,1694316043.49746,-0.009601308964192867,0.00041858479380607605,-0.0012473799288272858,0.051803648471832275,0.8045042157173157,-0.592010498046875,
0,2023-09-09 22:20:34.0510,02:17,10,1,2023-09-09 22:20:43.9510,1694316043.9506512,-0.0028820729348808527,-0.0016849819803610444,-0.0006769755273126066,0.002105712890625,-0.068145751953125,-0.9980010986328125,104.24589538574219,-27.482421875,-38.86366271972656,2023-09-09 22:20:43.5960,1694316043.596016,-0.015042813494801521,0.007850402034819126,0.008526220917701721,0.05032353848218918,0.7955015897750854,-0.5928192734718323,
0,2023-09-09 22:20:34.0510,02:17,10,1,2023-09-09 22:20:44.0510,1694316044.05064,-0.00449727987870574,-0.004863198380917311,-0.003439206164330244,0.0006103515625,-0.0684814453125,-0.99932861328125,104.40406799316406,-27.544036865234375,-39.24327087402344,2023-09-09 22:20:43.6960,1694316043.695797,-0.0013991063460707664,0.010843927040696144,0.015501805581152439,0.05221564322710037,0.8081206679344177,-0.5903931856155396,
0,2023-09-09 22:20:34.0510,02:17,10,1,2023-09-09 22:20:44.1510,1694316044.150672,-0.00014061490946915,-0.0017310547409579158,0.000800279900431633,-0.0007476806640625,-0.064117431640625,-0.9967803955078125,104.24728393554688,-27.327285766601562,-39.02821350097656,2023-09-09 22:20:43.7960,1694316043.795607,-0.004843305796384811,0.016132300719618797,0.020437275990843773,0.050796546041965485,0.805587649345398,-0.5912933349609375,
0,2023-09-09 22:20:34.0510,02:17,10,1,2023-09-09 22:20:44.2510,1694316044.250704,0.0004966795677319169,-0.004040548112243414,-0.0022144184913486242,0.0011444091796875,-0.070587158203125,-0.9996185302734375,104.15057373046875,-27.094802856445312,-39.229248046875,2023-09-09 22:20:43.8960,1694316043.895504,0.017268653959035873,0.009439509361982346,0.006202413700520992,0.057708777487277985,0.8074491620063782,-0.5892333984375,
0,2023-09-09 22:20:34.0510,02:17,10,1,2023-09-09 22:20:44.3640,1694316044.364012,-0.001192829804494977,-0.002960369922220707,-0.0004021373169962317,0.0003509521484375,-0.0684356689453125,-0.997344970703125,104.24284362792969,-27.339889526367188,-39.572906494140625,2023-09-09 22:20:43.9950,1694316043.9953818,0.07051462680101395,0.01743871346116066,0.02765321172773838,0.05853277072310448,0.8124387860298157,-0.5895233154296875,
0,2023-09-09 22:20:34.0510,02:17,10,1,2023-09-09 22:20:44.4620,1694316044.4618201,-0.0015686018159613013,-0.010231864638626575,-0.00242134602740407,0.00238037109375,-0.0692596435546875,-1.00482177734375,104.18759155273438,-27.259140014648438,-39.209869384765625,2023-09-09 22:20:44.0950,1694316044.0952082,-0.005334925372153521,0.004288690630346537,-0.023372389376163483,0.06085209548473358,0.7981261610984802,-0.59967041015625,
0,2023-09-09 22:20:34.0510,02:17,10,1,2023-09-09 22:20:44.5510,1694316044.5508919,-0.002523078816011548,-0.00392709719017148,-0.0037081853952258825,0.00384521484375,-0.0705413818359375,-0.9978179931640625,104.35270690917969,-27.432479858398438,-38.87420654296875,2023-09-09 22:20:44.1950,1694316044.1951509,-0.035475049167871475,0.0268804170191288,-0.02026444673538208,0.061782870441675186,0.8034055829048157,-0.5910797715187073,
0,2023-09-09 22:20:34.0510,02:17,10,1,2023-09-09 22:20:44.6600,1694316044.660361,-0.002254898427054286,-0.0031886028591543436,-0.004720985423773527,0.0010223388671875,-0.0686492919921875,-0.99761962890625,104.39314270019531,-27.242538452148438,-39.25901794433594,2023-09-09 22:20:44.2950,1694316044.2949119,0.07927656173706055,0.00919410027563572,0.05912292003631592,0.055572547018527985,0.8177946209907532,-0.60650634765625,
0,2023-09-09 22:20:34.0510,02:17,10,1,2023-09-09 22:20:44.7510,1694316044.750729,-0.0054488275200128555,-0.008584965951740742,-0.0034703651908785105,-0.0071868896484375,-0.0669403076171875,-0.9932708740234375,104.36210632324219,-27.144699096679688,-39.51300048828125,2023-09-09 22:20:44.3950,1694316044.394748,0.3058377504348755,-0.0168853048235178,0.08815620094537735,0.08129888772964478,0.7989653944969177,-0.5996094346046448,
0,2023-09-09 22:20:34.0510,02:17,10,1,2023-09-09 22:20:44.8620,1694316044.86168,-0.0007872303831391037,-0.005225654691457748,-0.001190433045849204,-0.00262451171875,-0.067657470703125,-0.9961395263671875,104.29450988769531,-27.267745971679688,-39.41865539550781,2023-09-09 22:20:44.4950,1694316044.494779,0.4454003572463989,0.16128429770469666,-0.026804039254784584,-0.06607049331068993,0.6877898573875427,-0.6126404404640198,
0,2023-09-09 22:20:34.0510,02:17,10,1,2023-09-09 22:20:44.9500,1694316044.950275,0.00014514227223116904,-0.004866394214332104,-0.007254983298480511,0.0023345947265625,-0.067657470703125,-0.99609375,104.28550720214844,-27.177261352539062,-39.52101135253906,2023-09-09 22:20:44.5940,1694316044.594409,0.021667463704943657,0.10427641123533249,-0.038151636719703674,0.11590581387281418,0.6187743544578552,-0.6497955918312073,
0,2023-09-09 22:20:34.0510,02:17,10,1,2023-09-09 22:20:45.0510,1694316045.0514998,1.0918960470007733e-05,-0.008860602974891663,-0.003381948219612241,-0.001983642578125,-0.0654144287109375,-0.998382568359375,104.29696655273438,-27.081878662109375,-39.81452941894531,2023-09-09 22:20:44.6940,1694316044.694437,0.41674894094467163,-0.1151873767375946,-0.07760393619537354,0.15693670883774757,0.5279234647750854,-0.5620269775390625,
0,2023-09-09 22:20:34.0510,02:17,10,1,2023-09-09 22:20:45.1510,1694316045.150556,0.0014357101172208786,-0.011203652247786522,-0.00560994865372777,-0.0051116943359375,-0.06817626953125,-0.9936370849609375,104.29039001464844,-27.08489990234375,-39.35459899902344,2023-09-09 22:20:44.7940,1694316044.793927,0.42294004559516907,-0.10035689920186996,-0.010160082019865513,0.07276923209428787,0.6280516386032104,-0.7303162217140198,
0,2023-09-09 22:20:34.0510,02:17,10,1,2023-09-09 22:20:45.2500,1694316045.250239,-0.0017670074012130499,-0.006336991675198078,-0.003680754918605089,-0.0030670166015625,-0.067230224609375,-0.9912872314453125,104.18594360351562,-27.233810424804688,-39.43646240234375,2023-09-09 22:20:44.8940,1694316044.894116,0.05790968984365463,-0.07239996641874313,-0.059750571846961975,0.055130040273070335,0.6095579862594604,-0.7706757187843323,
0,2023-09-09 22:20:34.0510,02:17,10,1,2023-09-09 22:20:45.3620,1694316045.362341,-0.0020295949652791023,-0.0016029566759243608,-0.0030900659039616585,0.006591796875,-0.0654754638671875,-1.0087738037109375,104.25424194335938,-27.189102172851562,-39.399169921875,2023-09-09 22:20:44.9940,1694316044.9936562,-0.11946769058704376,-0.02449169009923935,-0.1687183678150177,0.040313771925866604,0.6081541776657104,-0.7570037841796875,
0,2023-09-09 22:20:34.0510,02:17,10,1,2023-09-09 22:20:45.4600,1694316045.460219,0.015485482290387154,0.019002718850970268,-0.0024138891603797674,0.011962890625,-0.0687713623046875,-1.0000152587890625,104.27470397949219,-26.905532836914062,-39.64466857910156,2023-09-09 22:20:45.0940,1694316045.0936708,0.22045299410820007,-0.10182775557041168,-0.1242484375834465,-0.032424843637272716,0.693984866142273,-0.7713013291358948,
0,2023-09-09 22:20:34.0510,02:17,10,1,2023-09-09 22:20:45.5500,1694316045.550374,-0.001976331928744912,0.003905525663867593,-0.002001898130401969,-0.005035400390625,-0.0676116943359375,-1.00604248046875,104.25833129882812,-27.29705810546875,-39.05900573730469,2023-09-09 22:20:45.1930,1694316045.1933432,-0.3245255947113037,-0.2508178949356079,-0.3961253762245178,-0.07536311075091362,0.5977171659469604,-0.7864532470703125,
0,2023-09-09 22:20:34.0510,02:17,10,1,2023-09-09 22:20:45.6630,1694316045.662507,0.0030631679110229015,-0.007089867256581783,-0.005038168281316757,-0.0041656494140625,-0.07000732421875,-1.0094451904296875,104.2794189453125,-27.082901000976562,-39.18315124511719,2023-09-09 22:20:45.2930,1694316045.293262,-0.1701592206954956,-0.05537424236536026,-0.25253942608833313,-0.17874136567115784,0.7743529677391052,-0.8023529648780823,
0,2023-09-09 22:20:34.0510,02:17,10,1,2023-09-09 22:20:45.7510,1694316045.750585,0.0011004181578755379,-0.007139401976019144,-0.004260791465640068,0.0010986328125,-0.0702056884765625,-0.998199462890625,104.44049072265625,-27.24609375,-39.39738464355469,2023-09-09 22:20:45.3930,1694316045.393127,-0.27607253193855286,-0.406409353017807,-0.6142249703407288,-0.16052237153053284,0.657180666923523,-0.7364960312843323,
0,2023-09-09 22:20:34.0510,02:17,10,1,2023-09-09 22:20:45.8620,1694316045.862174,-0.0008937568636611104,-0.0033870083279907703,-0.002014415105804801,0.0018768310546875,-0.0712127685546875,-0.999755859375,104.15988159179688,-27.045806884765625,-39.692352294921875,2023-09-09 22:20:45.4930,1694316045.493062,-0.1157485842704773,-0.5159852504730225,-0.8558537364006042,-0.23674002289772034,0.5584258437156677,-0.7005615830421448,
0,2023-09-09 22:20:34.0510,02:17,10,1,2023-09-09 22:20:45.9620,1694316045.962329,-0.002413356676697731,-0.005802761763334274,-0.004344680812209845,-0.001495361328125,-0.070343017578125,-1.00048828125,104.0755615234375,-27.09735107421875,-39.425018310546875,2023-09-09 22:20:45.5930,1694316045.592852,-0.0756550282239914,-0.6750562191009521,-0.9884486198425293,-0.32562246918678284,0.37109363079071045,-0.4774017930030823,
0,2023-09-09 22:20:34.0510,02:17,10,1,2023-09-09 22:20:46.0500,1694316046.050497,0.0019859191961586475,-0.003748931922018528,-0.0034320156555622816,0.0008697509765625,-0.06976318359375,-1.0029296875,104.27455139160156,-27.099441528320312,-39.213958740234375,2023-09-09 22:20:45.6930,1694316045.692591,-0.4701875150203705,-0.8347309827804565,-1.2074092626571655,-0.3805236220359802,0.4497374892234802,-0.6449891328811646,
0,2023-09-09 22:20:34.0510,02:17,10,1,2023-09-09 22:20:46.1600,1694316046.1600928,0.007366303354501724,-0.015483352355659008,-0.004733236040920019,-0.0021209716796875,-0.0652618408203125,-0.996002197265625,104.23262023925781,-27.109909057617188,-39.18267822265625,2023-09-09 22:20:45.7930,1694316045.792557,0.5217329859733582,-0.8488968014717102,-0.9998334646224976,-0.42349231243133545,0.8320159316062927,-0.8717042207717896,
0,2023-09-09 22:20:34.0510,02:17,10,1,2023-09-09 22:20:46.2500,1694316046.2504458,-0.0028032432310283184,-0.006411027628928423,-0.0036935380194336176,-0.00042724609375,-0.0712890625,-0.993560791015625,104.28372192382812,-27.303924560546875,-39.25514221191406,2023-09-09 22:20:45.8920,1694316045.8923469,1.5434660911560059,-0.9357060790061951,-0.9628934264183044,-0.955184817314148,0.7227019667625427,-0.6414795517921448,
0,2023-09-09 22:20:34.0510,02:17,10,1,2023-09-09 22:20:46.3620,1694316046.362191,-0.0024578312877565622,-0.00221974472515285,-0.0011355718597769737,0.0019073486328125,-0.0696563720703125,-1.0083465576171875,104.22894287109375,-27.284210205078125,-39.372314453125,2023-09-09 22:20:45.9920,1694316045.992322,0.31077471375465393,-0.7103583812713623,-0.8722584843635559,-0.7409818768501282,0.4192504286766052,-0.5500946640968323,
0,2023-09-09 22:20:34.0510,02:17,10,1,2023-09-09 22:20:46.4510,1694316046.4507542,-0.001207477180287242,-0.0030517163686454296,-0.0022245384752750397,-0.00177001953125,-0.0695037841796875,-1.005584716796875,104.31021118164062,-27.272201538085938,-39.20268249511719,2023-09-09 22:20:46.0920,1694316046.092046,0.024100061506032944,-0.5894814729690552,-0.8389579057693481,-0.7907713651657104,0.2918548285961151,-0.44642648100852966,
0,2023-09-09 22:20:34.0510,02:17,10,1,2023-09-09 22:20:46.5510,1694316046.551245,-0.001278849900700152,-0.005188636481761932,-0.0027153589762747288,-0.00048828125,-0.0687713623046875,-1.0001220703125,104.24560546875,-27.338455200195312,-39.3026123046875,2023-09-09 22:20:46.1920,1694316046.1918678,-1.551452875137329,-0.3413924276828766,-0.8592996001243591,-0.8228452801704407,0.3370971083641052,-0.36508187651634216,
0,2023-09-09 22:20:34.0510,02:17,10,1,2023-09-09 22:20:46.6500,1694316046.650481,-0.0035694348625838757,-0.003051982494071126,-0.005536179058253765,0.0017547607421875,-0.06976318359375,-1.00030517578125,104.30682373046875,-27.010971069335938,-39.19166564941406,2023-09-09 22:20:46.2920,1694316046.2917628,-0.7497614026069641,-0.7418872117996216,-0.964563250541687,-0.933990478515625,0.2191925346851349,-0.39332592487335205,
0,2023-09-09 22:20:34.0510,02:17,10,1,2023-09-09 22:20:46.7510,1694316046.750581,0.00034914040588773787,-0.007259777281433344,-0.0037734329234808683,-0.0032958984375,-0.068389892578125,-0.99945068359375,104.2740478515625,-27.062026977539062,-39.280120849609375,2023-09-09 22:20:46.3920,1694316046.3915849,-0.9483387470245361,-0.721938967704773,-0.9915216565132141,-0.998489260673523,0.1706237941980362,-0.19485488533973694,
0,2023-09-09 22:20:34.0510,02:17,10,1,2023-09-09 22:20:46.8510,1694316046.850687,-0.0027651600539684296,-0.0065713501535356045,-0.0017654094845056534,-0.0020599365234375,-0.067657470703125,-0.995208740234375,104.32307434082031,-27.148834228515625,-39.018798828125,2023-09-09 22:20:46.4910,1694316046.491477,-0.3119064271450043,-0.3264346420764923,-1.181038737297058,-0.945571780204773,0.1829223856329918,-0.14508068561553955,
0,2023-09-09 22:20:34.0510,02:17,10,1,2023-09-09 22:20:46.9610,1694316046.960715,0.010479272343218327,0.015202920883893967,-0.0034029872622340918,-0.001220703125,-0.0558319091796875,-1.0035400390625,104.32431030273438,-27.141403198242188,-38.98272705078125,2023-09-09 22:20:46.5910,1694316046.5912209,0.001634700340218842,-0.178218275308609,-1.1593263149261475,-0.980300784111023,-0.008712725713849068,-0.16246047616004944,
0,2023-09-09 22:20:34.0510,02:17,10,1,2023-09-09 22:20:47.0610,1694316047.061244,-0.00024740767548792064,-0.003450924064964056,-0.004192348103970289,-0.0001678466796875,-0.0611114501953125,-1.004669189453125,104.20924377441406,-27.21435546875,-39.157806396484375,2023-09-09 22:20:46.6910,1694316046.691148,-0.24676638841629028,-0.17866449058055878,-0.9750691056251526,-0.9883422255516052,-0.14643855392932892,-0.11216752231121063,
0,2023-09-09 22:20:34.0510,02:17,10,1,2023-09-09 22:20:47.1620,1694316047.16181,0.0005352954030968249,-0.005056810099631548,-0.0001531317684566602,0.00433349609375,-0.06719970703125,-0.9891815185546875,104.03315734863281,-27.187973022460938,-39.39277648925781,2023-09-09 22:20:46.7910,1694316046.790916,0.3243640661239624,-0.4382110834121704,-1.1488313674926758,-0.988052248954773,-0.13136284053325653,-0.10771190375089645,
0,2023-09-09 22:20:34.0510,02:17,10,1,2023-09-09 22:20:47.2510,1694316047.2514749,-0.0020868529099971056,-0.0028423918411135674,-0.003210440743714571,0.0020751953125,-0.0678558349609375,-0.9951934814453125,104.17172241210938,-27.313262939453125,-39.45683288574219,2023-09-09 22:20:46.8910,1694316046.890675,0.4890201985836029,-0.5552435517311096,-1.254746675491333,-0.9321898221969604,-0.33122241497039795,-0.10849008336663246,
0,2023-09-09 22:20:34.0510,02:17,10,1,2023-09-09 22:20:47.3500,1694316047.350292,-0.0031161648221313953,-0.0035510589368641376,-0.0026527747977524996,0.0001373291015625,-0.0679473876953125,-0.998992919921875,104.22108459472656,-27.359344482421875,-39.16490173339844,2023-09-09 22:20:46.9910,1694316046.9906049,0.36563870310783386,-0.6894183158874512,-1.281209111213684,-0.8902128338813782,-0.37422168254852295,0.05374124273657799,
0,2023-09-09 22:20:34.0510,02:17,10,1,2023-09-09 22:20:47.4500,1694316047.450346,-0.0003818972909357399,-0.0019952403381466866,-0.003537476761266589,-0.0009613037109375,-0.0673370361328125,-0.99566650390625,103.91984558105469,-27.387115478515625,-39.275726318359375,2023-09-09 22:20:47.0910,1694316047.0906491,-0.4238331913948059,-0.48539355397224426,-0.751197874546051,-0.8001556992530823,-0.56488037109375,0.11528009921312332,
0,2023-09-09 22:20:34.0510,02:17,10,1,2023-09-09 22:20:47.5600,1694316047.559853,-0.0014168017078191042,-0.00506985979154706,-0.0041191112250089645,-0.0011138916015625,-0.068023681640625,-0.99908447265625,104.28495788574219,-27.694488525390625,-39.035308837890625,2023-09-09 22:20:47.1900,1694316047.190246,-1.5822230577468872,-0.3061530590057373,-0.26434725522994995,-0.8425902128219604,-0.5036771893501282,0.13758841902017593,
0,2023-09-09 22:20:34.0510,02:17,10,1,2023-09-09 22:20:47.6600,1694316047.660033,0.0015614113071933389,-0.007267233915627003,-0.003162503708153963,0.001129150390625,-0.0685882568359375,-1.000885009765625,104.30308532714844,-27.703811645507812,-39.158966064453125,2023-09-09 22:20:47.2900,1694316047.29007,-0.222769096493721,-0.4438195824623108,-0.07174810767173767,-0.7542724013328552,-0.6074827909469604,0.04968251287937164,
0,2023-09-09 22:20:34.0510,02:17,10,1,2023-09-09 22:20:47.7510,1694316047.7505841,0.0009709885343909264,-0.006494384724646807,-0.002490321872755885,0.00238037109375,-0.068115234375,-0.9981842041015625,104.16630554199219,-27.521224975585938,-39.23051452636719,2023-09-09 22:20:47.3900,1694316047.3900099,0.04690863937139511,-0.5316222906112671,-0.22221414744853973,-0.7379302978515625,-0.7158507108688354,0.008392192423343658,
0,2023-09-09 22:20:34.0510,02:17,10,1,2023-09-09 22:20:47.8620,1694316047.861788,-0.0031641016248613596,-0.0020634171087294817,-0.0025214808993041515,-0.001007080078125,-0.0710601806640625,-0.9990386962890625,104.30961608886719,-27.599639892578125,-39.27735900878906,2023-09-09 22:20:47.4900,1694316047.4899921,0.08652149885892868,-0.26668715476989746,-0.24839605391025543,-0.8135070204734802,-0.5397337675094604,0.15020740032196045,
0,2023-09-09 22:20:34.0510,02:17,10,1,2023-09-09 22:20:47.9610,1694316047.960978,-0.011980229988694191,0.006155630573630333,-0.0027510453946888447,-7.62939453125e-05,-0.0674591064453125,-0.9959869384765625,104.16822814941406,-27.649322509765625,-39.17889404296875,2023-09-09 22:20:47.5900,1694316047.589621,0.529266357421875,-0.21229834854602814,-0.1626930981874466,-0.7022705674171448,-0.6650238037109375,0.11703470349311829,
0,2023-09-09 22:20:34.0510,02:17,10,1,2023-09-09 22:20:48.0510,1694316048.0507932,-0.001790975802578032,-0.002356364857405424,-0.003041063668206334,0.0018463134765625,-0.07257080078125,-1.0186920166015625,104.15052795410156,-27.56207275390625,-39.243194580078125,2023-09-09 22:20:47.6890,1694316047.689481,-0.49378442764282227,-0.18629416823387146,-0.03863326832652092,-0.6404722929000854,-0.7444303631782532,0.20501697063446045,
0,2023-09-09 22:20:34.0510,02:17,10,1,2023-09-09 22:20:48.1510,1694316048.151075,-0.0009917612187564373,-0.0070491209626197815,-0.0015302523970603943,0.0009765625,-0.0720977783203125,-1.0038604736328125,104.29165649414062,-27.7720947265625,-38.75901794433594,2023-09-09 22:20:47.7890,1694316047.789438,0.11580941081047058,0.003097858279943466,-0.06349308043718338,-0.8104400038719177,-0.6364133954048157,0.14299003779888153,
0,2023-09-09 22:20:34.0510,02:17,10,1,2023-09-09 22:20:48.2610,1694316048.261178,-0.0034085798542946577,-0.004283960908651352,-0.0014181332662701607,0.0007476806640625,-0.0707550048828125,-1.001312255859375,104.21926879882812,-27.772186279296875,-38.924102783203125,2023-09-09 22:20:47.8890,1694316047.889227,0.26003262400627136,0.07084867358207703,-0.04466479271650314,-0.6855316162109375,-0.7004851698875427,0.13824443519115448,
0,2023-09-09 22:20:34.0510,02:17,10,1,2023-09-09 22:20:48.3620,1694316048.362257,0.0019973707385361195,-0.004769721534103155,-0.0021523667965084314,-0.0002899169921875,-0.069976806640625,-0.99932861328125,104.20599365234375,-27.750289916992188,-39.32588195800781,2023-09-09 22:20:47.9890,1694316047.988999,0.24542085826396942,0.10456815361976624,0.0005415984196588397,-0.7523040175437927,-0.6506651639938354,0.12231424450874329,
0,2023-09-09 22:20:34.0510,02:17,10,1,2023-09-09 22:20:48.4510,1694316048.450632,-0.001609081868082285,-0.0035989959724247456,-0.0014165353495627642,6.103515625e-05,-0.0682373046875,-0.9988861083984375,104.12112426757812,-27.478759765625,-39.16802978515625,2023-09-09 22:20:48.0890,1694316048.088881,-0.03679751232266426,0.13474948704242706,0.006472990848124027,-0.726791262626648,-0.664657473564148,0.16276532411575317,
0,2023-09-09 22:20:34.0510,02:17,10,1,2023-09-09 22:20:48.5510,1694316048.5511851,-0.0010615360224619508,-0.005570534151047468,-0.0023427826818078756,-0.0006256103515625,-0.0679779052734375,-1.00262451171875,104.18621826171875,-27.69842529296875,-38.98194885253906,2023-09-09 22:20:48.1890,1694316048.188658,-0.07570409774780273,0.1348593533039093,0.05711109936237335,-0.7360228896141052,-0.6690672636032104,0.13610832393169403,
0,2023-09-09 22:20:34.0510,02:17,10,1,2023-09-09 22:20:48.6620,1694316048.661963,-0.0046727824956178665,-0.00310577847994864,-0.0025590313598513603,0.004913330078125,-0.0707855224609375,-1.0033111572265625,104.15719604492188,-27.58929443359375,-38.927734375,2023-09-09 22:20:48.2880,1694316048.288484,-0.0037812371738255024,0.03708445280790329,0.03847033903002739,-0.7358551621437073,-0.664215087890625,0.12116989493370056,
0,2023-09-09 22:20:34.0510,02:17,10,1,2023-09-09 22:20:48.7500,1694316048.750499,-0.006479204632341862,-0.009840913116931915,-0.004198207054287195,-0.001129150390625,-0.0689544677734375,-1.00445556640625,104.25949096679688,-27.602706909179688,-39.031646728515625,2023-09-09 22:20:48.3880,1694316048.3883672,0.0853574201464653,-0.0062782010063529015,0.011260155588388443,-0.7423096299171448,-0.657470703125,0.12345872819423676,
0,2023-09-09 22:20:34.0510,02:17,10,1,2023-09-09 22:20:48.8620,1694316048.8621721,-0.003602191573008895,-0.0018972359830513597,-0.0034011229872703552,0.0023345947265625,-0.071868896484375,-0.9941558837890625,104.12362670898438,-27.447555541992188,-39.214263916015625,2023-09-09 22:20:48.4880,1694316048.488305,0.28684619069099426,-0.013685249723494053,-0.0357765294611454,-0.737762451171875,-0.661300539970398,0.12620528042316437,
0,2023-09-09 22:20:34.0510,02:17,10,1,2023-09-09 22:20:48.9620,1694316048.961595,-0.0007126618875190616,0.0026881948579102755,-0.006632336415350437,0.002655029296875,-0.0690765380859375,-1.0004425048828125,104.20356750488281,-27.918258666992188,-38.90736389160156,2023-09-09 22:20:48.5880,1694316048.5880299,0.062324944883584976,0.0008241836912930012,-0.03982360288500786,-0.7428130507469177,-0.6466979384422302,0.16009505093097687,
0,2023-09-09 22:20:34.0510,02:17,10,1,2023-09-09 22:20:49.0510,1694316049.051039,-0.017238108441233635,0.0037912761326879263,-0.00046392265358008444,0.0154571533203125,-0.0697479248046875,-1.01123046875,104.19200134277344,-27.667938232421875,-39.10740661621094,2023-09-09 22:20:48.6880,1694316048.68785,0.06800147891044617,0.046136803925037384,-0.014400399290025234,-0.726348876953125,-0.6623839139938354,0.16188031435012817,
0,2023-09-09 22:20:34.0510,02:17,10,1,2023-09-09 22:20:49.1600,1694316049.1597362,-0.0008396946941502392,-0.0013757890556007624,-0.002871420234441757,-0.0005645751953125,-0.0697479248046875,-1.0145721435546875,104.17605590820312,-27.747238159179688,-39.30912780761719,2023-09-09 22:20:48.7880,1694316048.787681,-0.029102971777319908,0.027649670839309692,0.0009328834712505341,-0.7341307401657104,-0.6532590985298157,0.151839941740036,
0,2023-09-09 22:20:34.0510,02:17,10,1,2023-09-09 22:20:49.2620,1694316049.2615051,-0.005323925521224737,-0.004430168308317661,-0.005958023946732283,-0.001068115234375,-0.06878662109375,-0.99786376953125,104.20039367675781,-27.76727294921875,-39.068603515625,2023-09-09 22:20:48.8880,1694316048.887516,0.03904033079743385,0.022755714133381844,0.0001536757335998118,-0.7290192246437073,-0.6544951796531677,0.15357960760593414,
0,2023-09-09 22:20:34.0510,02:17,10,1,2023-09-09 22:20:49.3610,1694316049.36094,-0.002071140334010124,-0.003073287894949317,-0.003156644757837057,-0.0020294189453125,-0.068939208984375,-0.9947052001953125,104.28414916992188,-27.886077880859375,-39.42338562011719,2023-09-09 22:20:48.9870,1694316048.9873152,0.05877455323934555,0.022424550727009773,0.008497392758727074,-0.735137939453125,-0.6618499755859375,0.15185536444187164,
0,2023-09-09 22:20:34.0510,02:17,10,1,2023-09-09 22:20:49.4600,1694316049.460462,-0.002377137541770935,-0.0016980315558612347,-0.005055478774011135,-0.000244140625,-0.0685882568359375,-0.9964599609375,104.18609619140625,-27.514801025390625,-39.20838928222656,2023-09-09 22:20:49.0870,1694316049.0874171,0.055141400545835495,0.008986638858914375,0.010314766317605972,-0.7471619248390198,-0.6508941054344177,0.15937787294387817,
0,2023-09-09 22:20:34.0510,02:17,10,1,2023-09-09 22:20:49.5620,1694316049.562494,-0.004190484061837196,-0.0031214910559356213,-0.0070493873208761215,0.0024566650390625,-0.0670928955078125,-1.002410888671875,104.22796630859375,-27.830368041992188,-39.051116943359375,2023-09-09 22:20:49.1870,1694316049.187025,-0.019383765757083893,0.005549164488911629,-0.004301559645682573,-0.7329559922218323,-0.6573333144187927,0.15258777141571045,
0,2023-09-09 22:20:34.0510,02:17,10,1,2023-09-09 22:20:49.6620,1694316049.662195,-2.3435817638528533e-05,-0.007419832982122898,-0.005849633365869522,9.1552734375e-05,-0.066253662109375,-0.9992828369140625,104.15370178222656,-27.609237670898438,-38.912994384765625,2023-09-09 22:20:49.2870,1694316049.286866,-0.0447893887758255,0.014345851726830006,-0.0002787883277051151,-0.732391357421875,-0.6557769179344177,0.1614072620868683,
0,2023-09-09 22:20:34.0510,02:17,10,1,2023-09-09 22:20:49.7500,1694316049.750268,-0.0037180392537266016,-0.008701878599822521,-0.0025092302821576595,-0.0007171630859375,-0.066192626953125,-0.99578857421875,104.27009582519531,-27.74566650390625,-39.093414306640625,2023-09-09 22:20:49.3870,1694316049.386725,0.0002456619404256344,-0.0014998232945799828,0.006441199220716953,-0.7298126220703125,-0.655074954032898,0.14700300991535187,
0,2023-09-09 22:20:34.0510,02:17,10,1,2023-09-09 22:20:49.8620,1694316049.861593,-0.002921221312135458,-0.0038772961124777794,-0.004275172483175993,-0.0011444091796875,-0.0672149658203125,-0.9888153076171875,104.212890625,-27.6407470703125,-39.00639343261719,2023-09-09 22:20:49.4870,1694316049.486535,-0.022655459120869637,-0.009317665360867977,0.025320781394839287,-0.7415771484375,-0.6533355116844177,0.1518705189228058,
0,2023-09-09 22:20:34.0510,02:17,10,1,2023-09-09 22:20:49.9610,1694316049.961286,-0.0046362970024347305,-0.00603498937562108,-0.002829076023772359,0.0014495849609375,-0.0648193359375,-0.9987030029296875,104.27021789550781,-27.467727661132812,-38.95085144042969,2023-09-09 22:20:49.5860,1694316049.586402,-0.03555174916982651,0.015039205551147461,0.011556065641343594,-0.7484130859375,-0.6473998427391052,0.14733876287937164,
0,2023-09-09 22:20:34.0510,02:17,10,1,2023-09-09 22:20:50.0610,1694316050.0613189,-0.0027427896857261658,-0.004619519226253033,-0.0034059167373925447,0.003143310546875,-0.066802978515625,-0.999908447265625,104.34640502929688,-27.831512451171875,-38.95709228515625,2023-09-09 22:20:49.6870,1694316049.6866012,-0.02762911282479763,-0.0006095292046666145,0.011396409943699837,-0.7340240478515625,-0.6601256132125854,0.1482999622821808,
0,2023-09-09 22:20:34.0510,02:17,10,1,2023-09-09 22:20:50.1630,1694316050.162672,-0.001978195970878005,-0.010587130673229694,-0.0022173479665070772,0.0031585693359375,-0.06854248046875,-0.9972991943359375,104.32156372070312,-27.574234008789062,-39.08549499511719,2023-09-09 22:20:49.7860,1694316049.786053,-0.019693557173013687,-0.04394741356372833,0.03287433832883835,-0.729629635810852,-0.6651763319969177,0.15116871893405914,
0,2023-09-09 22:20:34.0510,02:17,10,1,2023-09-09 22:20:50.2510,1694316050.25069,0.0032748891972005367,-0.0006162554491311312,-0.002882871776819229,-0.0033416748046875,-0.061370849609375,-0.97735595703125,104.2471923828125,-27.46429443359375,-38.79573059082031,2023-09-09 22:20:49.8860,1694316049.8857841,-0.015316786244511604,-0.023609118536114693,0.01385091245174408,-0.7466430068016052,-0.646926760673523,0.16482526063919067,
0,2023-09-09 22:20:34.0510,02:17,10,1,2023-09-09 22:20:50.3620,1694316050.362148,-0.005374258849769831,-0.002013349672779441,-0.004954811185598373,-0.008331298828125,-0.0656585693359375,-0.9930419921875,104.21255493164062,-27.430221557617188,-38.84443664550781,2023-09-09 22:20:49.9860,1694316049.985996,-0.025189723819494247,-0.0013875709846615791,0.008238333277404308,-0.7405394911766052,-0.6496885418891907,0.1493070423603058,
0,2023-09-09 22:20:34.0510,02:17,10,1,2023-09-09 22:20:50.4630,1694316050.4625301,-0.0016900419723242521,-0.004811000544577837,-0.0037681066896766424,-0.00238037109375,-0.066009521484375,-1.001251220703125,104.17709350585938,-27.48199462890625,-39.00950622558594,2023-09-09 22:20:50.0860,1694316050.085771,0.007002168335020542,-0.016332164406776428,0.0002969870693050325,-0.7440185546875,-0.6464232206344604,0.14854420721530914,
0,2023-09-09 22:20:34.0510,02:17,10,1,2023-09-09 22:20:50.5620,1694316050.5617151,-0.004939364735037088,-0.0057068876922130585,-0.004491687286645174,0.0005340576171875,-0.0666351318359375,-0.999908447265625,104.28274536132812,-27.509307861328125,-39.01423645019531,2023-09-09 22:20:50.1850,1694316050.1853971,-0.0017267416696995497,-0.006640656851232052,-0.012796777300536633,-0.7396697998046875,-0.6435851454734802,0.16215495765209198,
0,2023-09-09 22:20:34.0510,02:17,10,1,2023-09-09 22:20:50.6600,1694316050.6604052,-0.004505802411586046,0.00033582461765035987,-0.0018421085551381111,-0.0007171630859375,-0.0672149658203125,-0.9942474365234375,104.16156005859375,-27.314056396484375,-38.90904235839844,2023-09-09 22:20:50.2850,1694316050.285161,-0.002111235400661826,0.032148681581020355,-0.01454703975468874,-0.7466277480125427,-0.6490172147750854,0.14471422135829926,
0,2023-09-09 22:20:34.0510,02:17,10,1,2023-09-09 22:20:50.7600,1694316050.760031,0.0005052016349509358,-0.006443784572184086,-7.403588097076863e-05,0.000823974609375,-0.0655975341796875,-1.00006103515625,104.35079956054688,-27.808197021484375,-39.17620849609375,2023-09-09 22:20:50.3850,1694316050.385264,0.006780659779906273,0.009887054562568665,-0.0017780479975044727,-0.756805419921875,-0.6562193632125854,0.13348379731178284,
0,2023-09-09 22:20:34.0510,02:17,10,1,2023-09-09 22:20:50.8620,1694316050.8621268,-0.0022330605424940586,-0.0038836877793073654,-7.270430069183931e-05,0.000152587890625,-0.0658416748046875,-0.99554443359375,104.33749389648438,-27.705169677734375,-38.84190368652344,2023-09-09 22:20:50.4850,1694316050.484941,0.004390605725347996,-0.04724041372537613,-0.006560752168297768,-0.7393950819969177,-0.6482695937156677,0.15927110612392426,
0,2023-09-09 22:20:34.0510,02:17,10,1,2023-09-09 22:20:50.9620,1694316050.962091,0.005116731394082308,-0.0060387179255485535,-0.0015089471125975251,-0.0003662109375,-0.0608978271484375,-0.99017333984375,104.16346740722656,-27.2725830078125,-39.083282470703125,2023-09-09 22:20:50.5850,1694316050.584889,0.005832907278090715,-0.008108590729534626,-0.007832512259483337,-0.7371978163719177,-0.6540526151657104,0.16392497718334198,
0,2023-09-09 22:20:34.0510,02:17,10,1,2023-09-09 22:20:51.0610,1694316051.060773,-0.0017835189355537295,-0.006915696896612644,-0.0038605183362960815,-0.0022125244140625,-0.0668182373046875,-0.989501953125,104.15554809570312,-27.298492431640625,-38.87933349609375,2023-09-09 22:20:50.6850,1694316050.684751,0.03970998153090477,0.008698219433426857,-0.008665981702506542,-0.7507018446922302,-0.6467435956001282,0.1479642689228058,
0,2023-09-09 22:20:34.0510,02:17,10,1,2023-09-09 22:20:51.1640,1694316051.1635199,-0.001261273049749434,-0.003579554846510291,-0.003695135936141014,0.001861572265625,-0.0660552978515625,-0.998321533203125,104.50106811523438,-27.74639892578125,-38.800750732421875,2023-09-09 22:20:50.7850,1694316050.784558,0.01767738349735737,-0.00026172026991844177,-0.0048033325001597404,-0.7307586669921875,-0.6562041640281677,0.15702807903289795,
0,2023-09-09 22:20:34.0510,02:17,10,1,2023-09-09 22:20:51.2610,1694316051.261263,-0.0033606430515646935,-0.000666589243337512,-0.004471713677048683,0.00048828125,-0.0656585693359375,-1.0010528564453125,104.33772277832031,-27.810394287109375,-39.09580993652344,2023-09-09 22:20:50.8840,1694316050.884334,0.03480050712823868,-0.0043039992451667786,-0.029920969158411026,-0.744766116142273,-0.651046633720398,0.15153488516807556,
0,2023-09-09 22:20:34.0510,02:17,10,1,2023-09-09 22:20:51.3620,1694316051.362354,-0.004700479097664356,-0.0035577169619500637,-0.002779274946078658,0.0019683837890625,-0.0657196044921875,-0.9979400634765625,104.47526550292969,-27.749252319335938,-38.80999755859375,2023-09-09 22:20:50.9840,1694316050.983972,0.008431619964540005,-0.00503184087574482,-0.009522819891571999,-0.7396087646484375,-0.6614379286766052,0.15538007020950317,
0,2023-09-09 22:20:34.0510,02:17,10,1,2023-09-09 22:20:51.4510,1694316051.450589,-0.0035300198942422867,-0.004367318004369736,-0.0016578177455812693,0.0015106201171875,-0.0660552978515625,-0.9966583251953125,104.49958801269531,-27.72564697265625,-38.888427734375,2023-09-09 22:20:51.0840,1694316051.084131,0.013954682275652885,0.006580207496881485,0.0008114764932543039,-0.73388671875,-0.65313720703125,0.15911845862865448,
0,2023-09-09 22:20:34.0510,02:17,10,1,2023-09-09 22:20:51.5620,1694316051.5623689,-0.001817341079004109,-0.0018487664638087153,-0.003609115956351161,0.0005645751953125,-0.066436767578125,-0.998016357421875,104.284912109375,-27.520553588867188,-38.81756591796875,2023-09-09 22:20:51.1840,1694316051.1838589,0.021931249648332596,-0.002005557529628277,0.003116775304079056,-0.7381744384765625,-0.652175784111023,0.15632618963718414,
0,2023-09-09 22:20:34.0510,02:17,10,1,2023-09-09 22:20:51.6630,1694316051.66288,-0.004619252867996693,-0.002597114769741893,-0.004805407952517271,0.0014801025390625,-0.0667877197265625,-0.9986419677734375,104.37474060058594,-27.70428466796875,-38.7744140625,2023-09-09 22:20:51.2840,1694316051.2837129,-0.01799359731376171,-0.010871087200939655,0.010778057388961315,-0.73638916015625,-0.657150149345398,0.1705472767353058,
0,2023-09-09 22:20:34.0510,02:17,10,1,2023-09-09 22:20:51.7600,1694316051.760489,-0.011533617973327637,0.0021704763639718294,-0.005142297595739365,-0.0072784423828125,-0.071044921875,-0.996551513671875,104.35159301757812,-27.503631591796875,-39.01945495605469,2023-09-09 22:20:51.3840,1694316051.383543,0.004611315205693245,-0.010026066564023495,-0.00623647915199399,-0.7296904921531677,-0.6546019315719604,0.16648846864700317,
0,2023-09-09 22:20:34.0510,02:17,10,1,2023-09-09 22:20:51.8510,1694316051.85069,-0.005219263024628162,0.0073623089119791985,-0.006846987176686525,0.006011962890625,-0.0630340576171875,-1.010833740234375,104.35159301757812,-27.503631591796875,-39.01945495605469,2023-09-09 22:20:51.4830,1694316051.483254,-0.002790541620925069,0.0019123516976833344,0.00036942504812031984,-0.7359314560890198,-0.6539611220359802,0.16361987590789795,
0,2023-09-09 22:20:34.0510,02:17,10,1,2023-09-09 22:20:51.9510,1694316051.950614,5.5660068028373644e-05,-0.004347876645624638,-0.0033337450586259365,0.0045013427734375,-0.0652923583984375,-0.995819091796875,104.29739379882812,-27.381576538085938,-39.070220947265625,2023-09-09 22:20:51.5830,1694316051.583301,-0.007038016803562641,0.0027464530430734158,0.0014344232622534037,-0.7396240234375,-0.6559295058250427,0.15841659903526306,
0,2023-09-09 22:20:34.0510,02:17,10,1,2023-09-09 22:20:52.0620,1694316052.061554,-0.0014439659425988793,-0.008230765350162983,-0.0028272117488086224,0.0001220703125,-0.0653839111328125,-0.99017333984375,104.37745666503906,-27.69000244140625,-38.82342529296875,2023-09-09 22:20:51.6830,1694316051.6829882,-0.01089434139430523,-0.018145645037293434,-0.01226684171706438,-0.7259674072265625,-0.6531676650047302,0.1735534369945526,
0,2023-09-09 22:20:34.0510,02:17,10,1,2023-09-09 22:20:52.1610,1694316052.1609612,-0.001294029993005097,-0.004084756597876549,-0.0020120181143283844,0.0019683837890625,-0.0653533935546875,-0.99542236328125,104.56396484375,-27.711654663085938,-38.95912170410156,2023-09-09 22:20:51.7830,1694316051.783012,-0.008059139363467693,-0.0023461757227778435,0.0035621889401227236,-0.7299651503562927,-0.6565092206001282,0.1669309437274933,
0,2023-09-09 22:20:34.0510,02:17,10,1,2023-09-09 22:20:52.2620,1694316052.262031,0.0005241101025603712,-0.00523604080080986,-0.0046658581122756,0.0014801025390625,-0.065704345703125,-0.997589111328125,104.32583618164062,-27.739120483398438,-39.0570068359375,2023-09-09 22:20:51.8830,1694316051.8827848,-0.004909285344183445,0.004066449590027332,0.0018557021394371986,-0.7388305068016052,-0.661300539970398,0.16387926042079926,
0,2023-09-09 22:20:34.0510,02:17,10,1,2023-09-09 22:20:52.3600,1694316052.360303,-0.0013462279457598925,-0.006287723314017057,-0.0017512947088107467,0.00048828125,-0.06793212890625,-0.997528076171875,104.30409240722656,-27.769912719726562,-38.990234375,2023-09-09 22:20:51.9830,1694316051.982575,0.01965118572115898,-0.006533464416861534,-0.0012953502591699362,-0.7331542372703552,-0.6526792645454407,0.16481000185012817,
0,2023-09-09 22:20:34.0510,02:17,10,1,2023-09-09 22:20:52.4620,1694316052.46159,0.0021603561472147703,-0.005852829199284315,-0.0025875272694975138,-0.0010223388671875,-0.0660400390625,-0.998077392578125,104.25796508789062,-27.897018432617188,-39.158203125,2023-09-09 22:20:52.0830,1694316052.082604,-0.012289903126657009,-0.020875785499811172,-0.004938188008964062,-0.7248687744140625,-0.6600951552391052,0.17301924526691437,
0,2023-09-09 22:20:34.0510,02:17,10,1,2023-09-09 22:20:52.5620,1694316052.562171,-0.0034946000669151545,-0.0027979169972240925,-0.0033302828669548035,0.0027923583984375,-0.0694580078125,-0.9997711181640625,104.43524169921875,-27.786697387695312,-38.94053649902344,2023-09-09 22:20:52.1820,1694316052.182369,-0.017448246479034424,-0.030732810497283936,0.010723096318542957,-0.7367247343063354,-0.652389407157898,0.1704862117767334,
0,2023-09-09 22:20:34.0510,02:17,10,1,2023-09-09 22:20:52.6640,1694316052.664062,-0.001845038030296564,-0.013642042875289917,-0.002995789982378483,-0.0033111572265625,-0.07080078125,-1.0016632080078125,104.39476013183594,-27.707366943359375,-38.91429138183594,2023-09-09 22:20:52.2820,1694316052.282082,-0.026717711240053177,0.0013285866007208824,-0.0022643080446869135,-0.7254638671875,-0.6576537489891052,0.17523175477981567,
0,2023-09-09 22:20:34.0510,02:17,10,1,2023-09-09 22:20:52.7610,1694316052.7607222,-0.0007624630234204233,-0.003323891432955861,-0.0008676578872837126,0.001922607421875,-0.072998046875,-0.9955596923828125,104.39476013183594,-27.707366943359375,-38.91429138183594,2023-09-09 22:20:52.3820,1694316052.381918,0.005749683827161789,-0.0020522959530353546,-0.00960624311119318,-0.7357330918312073,-0.6497191786766052,0.16275015473365784,
0,2023-09-09 22:20:34.0510,02:17,10,1,2023-09-09 22:20:52.8610,1694316052.861312,-0.0024109596852213144,-0.0028514466248452663,-0.0020964404102414846,-0.0027923583984375,-0.06781005859375,-1.0025787353515625,104.31077575683594,-27.711761474609375,-39.06121826171875,2023-09-09 22:20:52.4820,1694316052.481736,-0.0008935052901506424,-0.0013520177453756332,-0.01245359517633915,-0.740859866142273,-0.6600035429000854,0.16200239956378937,
0,2023-09-09 22:20:34.0510,02:17,10,1,2023-09-09 22:20:52.9600,1694316052.960484,-0.003079146845266223,-0.002493251347914338,-0.0010042780777439475,-0.002899169921875,-0.070068359375,-1.0024566650390625,104.15672302246094,-27.593673706054688,-39.228302001953125,2023-09-09 22:20:52.5820,1694316052.5815759,0.015511434525251389,0.0014158044941723347,-0.0006574565195478499,-0.7285919785499573,-0.6572265625,0.16708359122276306,
0,2023-09-09 22:20:34.0510,02:17,10,1,2023-09-09 22:20:53.0600,1694316053.0601301,0.016020245850086212,-0.025062741711735725,-0.001359543763101101,-0.002105712890625,-0.0682525634765625,-1.0051116943359375,104.37728881835938,-27.52166748046875,-39.2166748046875,2023-09-09 22:20:52.6810,1694316052.681422,0.0164312906563282,-0.007740408182144165,0.0008011568570509553,-0.7259064316749573,-0.6594696044921875,0.16589348018169403,
0,2023-09-09 22:20:34.0510,02:17,10,1,2023-09-09 22:20:53.1600,1694316053.160104,0.0028503811918199062,-0.011894210241734982,-0.0037180392537266016,-0.0030517578125,-0.07025146484375,-0.9843902587890625,104.48971557617188,-27.5745849609375,-39.20704650878906,2023-09-09 22:20:52.7810,1694316052.781241,-0.005861366167664528,-0.010080263018608093,-0.005563598126173019,-0.7326813340187073,-0.6565399169921875,0.16499318182468414,
0,2023-09-09 22:20:34.0510,02:17,10,1,2023-09-09 22:20:53.2620,1694316053.262047,0.000630636524874717,-0.0006087986403144896,-0.0031965922098606825,-0.0017852783203125,-0.07025146484375,-1.0046539306640625,104.34309387207031,-27.63067626953125,-38.72090148925781,2023-09-09 22:20:52.8810,1694316052.881182,0.0013643894344568253,0.0021618902683258057,-0.008503228425979614,-0.7321318984031677,-0.6569975018501282,0.1664121299982071,
0,2023-09-09 22:20:34.0510,02:17,10,1,2023-09-09 22:20:53.3620,1694316053.3619242,-0.0013555489713326097,-0.0037031255196779966,-0.0024519723374396563,-0.0004119873046875,-0.070770263671875,-1.0059661865234375,104.37907409667969,-27.540786743164062,-38.960296630859375,2023-09-09 22:20:52.9810,1694316052.980991,-0.017107628285884857,-0.00030619464814662933,0.0030710354913026094,-0.7227020263671875,-0.6683501601219177,0.17007429897785187,
0,2023-09-09 22:20:34.0510,02:17,10,1,2023-09-09 22:20:53.4510,1694316053.450655,-0.0013555489713326097,-0.0037031255196779966,-0.0024519723374396563,4.57763671875e-05,-0.0706939697265625,-1.003692626953125,104.462646484375,-27.778228759765625,-38.759246826171875,2023-09-09 22:20:53.0810,1694316053.081083,-0.00554185314103961,-0.0022259345278143883,0.002000744454562664,-0.740310549736023,-0.6543576717376709,0.1654660403728485,
0,2023-09-09 22:20:34.0510,02:17,10,1,2023-09-09 22:20:53.5630,1694316053.5634031,-0.0025102957151830196,-0.006655239500105381,-0.004385161213576794,-0.000213623046875,-0.0696563720703125,-1.005126953125,104.3740234375,-27.539154052734375,-38.944427490234375,2023-09-09 22:20:53.1810,1694316053.180609,0.006128052249550819,0.004082960542291403,-0.005991768091917038,-0.7376403212547302,-0.6521300077438354,0.16464217007160187,
0,2023-09-09 22:20:34.0510,02:17,10,1,2023-09-09 22:20:53.6610,1694316053.660829,-0.003546265186741948,-0.0036695697344839573,-0.001186970854178071,0.0011749267578125,-0.0708465576171875,-1.00054931640625,104.21615600585938,-27.57391357421875,-38.770416259765625,2023-09-09 22:20:53.2810,1694316053.2805018,-0.007908337749540806,0.007578493095934391,-0.018005188554525375,-0.7287139892578125,-0.6636504530906677,0.16734309494495392,
0,2023-09-09 22:20:34.0510,02:17,10,1,2023-09-09 22:20:53.7620,1694316053.761868,-0.009435580112040043,-0.01858646795153618,-0.00013209278404247016,-0.0004425048828125,-0.072235107421875,-0.998077392578125,104.32380676269531,-27.623245239257812,-39.07562255859375,2023-09-09 22:20:53.3800,1694316053.3803558,-0.013065283186733723,0.01413120049983263,-0.0066927457228302956,-0.733596682548523,-0.6593015789985657,0.17106610536575317,
0,2023-09-09 22:20:34.0510,02:17,10,1,2023-09-09 22:20:53.8620,1694316053.8617349,-0.0019744676537811756,-0.010452374815940857,-0.005805158521980047,-0.00018310546875,-0.0728759765625,-0.99017333984375,104.327880859375,-27.740921020507812,-39.50798034667969,2023-09-09 22:20:53.4800,1694316053.480173,0.022566547617316246,0.007349860854446888,0.0061630988493561745,-0.7310181260108948,-0.66168212890625,0.16114793717861176,
0,2023-09-09 22:20:34.0510,02:17,10,1,2023-09-09 22:20:53.9610,1694316053.960531,0.0149813462048769,-0.016095878556370735,-0.004571582190692425,0.0001678466796875,-0.0684814453125,-0.9965667724609375,104.1915283203125,-27.67315673828125,-39.3116455078125,2023-09-09 22:20:53.5800,1694316053.5799751,0.032530296593904495,0.0042625917121768,-0.005069082602858543,-0.7311248183250427,-0.6527402997016907,0.1660916656255722,
0,2023-09-09 22:20:34.0510,02:17,10,1,2023-09-09 22:20:54.0610,1694316054.0613241,0.0041425470262765884,-0.02556980773806572,-0.004253600724041462,-0.0013885498046875,-0.0680084228515625,-0.9965972900390625,104.36720275878906,-27.671173095703125,-38.81697082519531,2023-09-09 22:20:53.6800,1694316053.6799421,-0.02225252240896225,0.003143264912068844,-0.003542159218341112,-0.7189635634422302,-0.661178469657898,0.1833798587322235,
0,2023-09-09 22:20:34.0510,02:17,10,1,2023-09-09 22:20:54.1610,1694316054.161057,-0.006656571291387081,-0.005020591430366039,-0.002359027974307537,-0.0030059814453125,-0.0667724609375,-0.976715087890625,104.26991271972656,-27.39044189453125,-39.403045654296875,2023-09-09 22:20:53.7800,1694316053.779664,-0.03596261143684387,0.0038255658000707626,0.008164896629750729,-0.7196350693702698,-0.661163330078125,0.18324264883995056,
0,2023-09-09 22:20:34.0510,02:17,10,1,2023-09-09 22:20:54.2620,1694316054.26164,-0.004406199790537357,-0.006620352156460285,-0.0012159993639215827,0.001617431640625,-0.0685272216796875,-1.00262451171875,104.31394958496094,-27.717849731445312,-39.06402587890625,2023-09-09 22:20:53.8800,1694316053.87953,-0.023961208760738373,0.0030678976327180862,1.302763121202588e-05,-0.7282105088233948,-0.657379150390625,0.17448420822620392,
0,2023-09-09 22:20:34.0510,02:17,10,1,2023-09-09 22:20:54.3620,1694316054.3616261,-0.0026999127585440874,-0.0057465690188109875,-0.003718571737408638,0.001007080078125,-0.066925048828125,-1.0001373291015625,104.19094848632812,-27.803848266601562,-39.3919677734375,2023-09-09 22:20:53.9790,1694316053.979356,-0.02346399426460266,-0.0031955912709236145,0.009859533049166203,-0.7324371337890625,-0.6510619521141052,0.17175275087356567,
0,2023-09-09 22:20:34.0510,02:17,10,1,2023-09-09 22:20:54.4630,1694316054.463217,-0.003899933071807027,-0.005790244787931442,-0.0011062771081924438,0.00042724609375,-0.06561279296875,-0.9980621337890625,104.21728515625,-27.71710205078125,-39.29298400878906,2023-09-09 22:20:54.0790,1694316054.0793738,-0.02524358592927456,-0.003989613614976406,0.001076594227924943,-0.7172240614891052,-0.654647707939148,0.17993144690990448,
0,2023-09-09 22:20:34.0510,02:17,10,1,2023-09-09 22:20:54.5640,1694316054.5644,-0.0008886968716979027,-0.0017504957504570484,-0.0017920411191880703,0.0023956298828125,-0.0666351318359375,-0.9977874755859375,104.35136413574219,-27.696853637695312,-39.18095397949219,2023-09-09 22:20:54.1790,1694316054.179013,-0.02357664704322815,-0.027556326240301132,0.002107870066538453,-0.7224883437156677,-0.6589507460594177,0.18325790762901306,
0,2023-09-09 22:20:34.0510,02:17,10,1,2023-09-09 22:20:54.6510,1694316054.6509318,-0.0008886968716979027,-0.0017504957504570484,-0.0017920411191880703,-0.0027313232421875,-0.0670928955078125,-0.9980621337890625,104.31375122070312,-27.828216552734375,-39.1611328125,2023-09-09 22:20:54.2790,1694316054.27887,-0.013923685997724533,-0.013117063790559769,0.0028733625076711178,-0.7292175889015198,-0.6554717421531677,0.17242418229579926,
0,2023-09-09 22:20:34.0510,02:17,10,1,2023-09-09 22:20:54.7620,1694316054.761866,-0.0013962953817099333,-0.001085504423826933,-0.002240783767774701,0.0001068115234375,-0.067169189453125,-1.0070648193359375,104.14794921875,-27.582244873046875,-39.00508117675781,2023-09-09 22:20:54.3790,1694316054.378669,-0.015211325138807297,-0.0038263611495494843,-0.004639281891286373,-0.73321533203125,-0.6504973769187927,0.16838066279888153,
0,2023-09-09 22:20:34.0510,02:17,10,1,2023-09-09 22:20:54.8640,1694316054.864104,-0.004889297299087048,-0.018557971343398094,-0.004972654394805431,-0.0096893310546875,-0.07232666015625,-1.0052490234375,104.232666015625,-27.620864868164062,-38.836212158203125,2023-09-09 22:20:54.4790,1694316054.478534,0.02157132513821125,-0.026442725211381912,-0.010268338955938816,-0.7399901747703552,-0.6580961346626282,0.1685178428888321,
0,2023-09-09 22:20:34.0510,02:17,10,1,2023-09-09 22:20:54.9600,1694316054.9599462,-0.004889297299087048,-0.018557971343398094,-0.004972654394805431,-0.004547119140625,-0.0728302001953125,-0.9879608154296875,104.23336791992188,-27.46075439453125,-38.576141357421875,2023-09-09 22:20:54.5780,1694316054.578301,-0.0038062711246311665,0.00042044930160045624,-0.0052925883792340755,-0.733489990234375,-0.6595458388328552,0.17662036418914795,
0,2023-09-09 22:20:34.0510,02:17,10,1,2023-09-09 22:20:55.0620,1694316055.062115,-0.001606418751180172,-0.0034916705917567015,-0.0029547770973294973,-0.001739501953125,-0.0655975341796875,-1.0034027099609375,104.26210021972656,-27.54705810546875,-38.78263854980469,2023-09-09 22:20:54.6780,1694316054.6782079,-0.029092853888869286,0.009387578815221786,-0.006575100589543581,-0.7288665771484375,-0.661224365234375,0.16911306977272034,
0,2023-09-09 22:20:34.0510,02:17,10,1,2023-09-09 22:20:55.1600,1694316055.160053,7.856325100874528e-05,-0.003975566942244768,-0.0038980687968432903,0.0013885498046875,-0.06866455078125,-1.00201416015625,104.19606018066406,-27.566314697265625,-38.95768737792969,2023-09-09 22:20:54.7780,1694316054.7780209,-0.010368365794420242,-0.013455552980303764,0.0008275221334770322,-0.7223358154296875,-0.6614531874656677,0.17477406561374664,
0,2023-09-09 22:20:34.0510,02:17,10,1,2023-09-09 22:20:55.2600,1694316055.260277,0.0017001620726659894,-0.007149255834519863,-0.004539890680462122,-0.0015106201171875,-0.0652618408203125,-0.995697021484375,104.0208740234375,-27.588882446289062,-38.838409423828125,2023-09-09 22:20:54.8780,1694316054.877787,0.00786543171852827,-0.002033654600381851,-0.004678263794630766,-0.7241363525390625,-0.6603087782859802,0.1773068755865097,
0,2023-09-09 22:20:34.0510,02:17,10,1,2023-09-09 22:20:55.3610,1694316055.36104,0.00022983079543337226,-0.006942594423890114,-0.00358781055547297,-0.002197265625,-0.067291259765625,-0.9954376220703125,104.16392517089844,-27.658279418945312,-38.96226501464844,2023-09-09 22:20:54.9780,1694316054.97771,-0.0018288071732968092,0.014630410820245743,0.0029549216851592064,-0.7406920194625854,-0.646926760673523,0.16987591981887817,
0,2023-09-09 22:20:34.0510,02:17,10,1,2023-09-09 22:20:55.4630,1694316055.462844,-0.0023726101499050856,-0.005811283830553293,-0.0007044061203487217,-0.010406494140625,-0.080078125,-0.9866180419921875,104.30975341796875,-27.490997314453125,-39.00373840332031,2023-09-09 22:20:55.0780,1694316055.0778031,0.003210492432117462,-0.0030267471447587013,-0.011977588757872581,-0.7367553114891052,-0.657943606376648,0.17205791175365448,
0,2023-09-09 22:20:34.0510,02:17,10,1,2023-09-09 22:20:55.5620,1694316055.561637,-0.019107380881905556,0.015233547426760197,-0.004575310740619898,0.0126953125,-0.0684814453125,-1.0288543701171875,104.41427612304688,-27.9522705078125,-38.482025146484375,2023-09-09 22:20:55.1770,1694316055.177382,0.012963121756911278,-0.006127731874585152,-0.007539364509284496,-0.7235106825828552,-0.6634672284126282,0.17524711787700653,
0,2023-09-09 22:20:34.0510,02:17,10,1,2023-09-09 22:20:55.6620,1694316055.661975,-0.004064516630023718,0.012078233994543552,-0.001978462329134345,0.0019683837890625,-0.0683746337890625,-0.999847412109375,104.31466674804688,-27.976409912109375,-38.822265625,2023-09-09 22:20:55.2770,1694316055.277317,0.04490041732788086,-0.003849397413432598,-0.002206983510404825,-0.725006103515625,-0.6478270888328552,0.16635122895240784,
0,2023-09-09 22:20:34.0510,02:17,10,1,2023-09-09 22:20:55.7620,1694316055.761903,-0.0014801849611103535,-0.010177802294492722,-0.005032309330999851,-0.0005950927734375,-0.067535400390625,-0.992095947265625,104.34852600097656,-27.751174926757812,-39.03532409667969,2023-09-09 22:20:55.3770,1694316055.3771071,0.007294183596968651,-0.0008413568139076233,0.0026514213532209396,-0.7325287461280823,-0.6594237685203552,0.1771850287914276,
0,2023-09-09 22:20:34.0510,02:17,10,1,2023-09-09 22:20:55.8620,1694316055.8617759,-0.001017327536828816,-0.0062800003215670586,-0.005673065781593323,0.0013885498046875,-0.0664520263671875,-0.9988861083984375,104.30775451660156,-27.831756591796875,-38.972625732421875,2023-09-09 22:20:55.4770,1694316055.477113,0.00428228173404932,0.004944627173244953,-0.003578444942831993,-0.733917236328125,-0.663177490234375,0.17596420645713806,
0,2023-09-09 22:20:34.0510,02:17,10,1,2023-09-09 22:20:55.9630,1694316055.963221,0.003543602069839835,-0.004879443906247616,-0.002267149044200778,-0.000244140625,-0.0677642822265625,-0.99639892578125,104.34321594238281,-27.88385009765625,-39.14495849609375,2023-09-09 22:20:55.5770,1694316055.576777,-0.006238602567464113,0.0023244754411280155,-0.0055950903333723545,-0.731689453125,-0.657440185546875,0.1800687462091446,
0,2023-09-09 22:20:34.0510,02:17,10,1,2023-09-09 22:20:56.0620,1694316056.0623279,0.002008289797231555,-0.0051878378726542,-0.0024517059791833162,-0.001373291015625,-0.065704345703125,-0.9913177490234375,104.41007995605469,-27.716842651367188,-39.296142578125,2023-09-09 22:20:55.6770,1694316055.676629,0.012527694925665855,-0.007554653100669384,-0.005401778034865856,-0.7324217557907104,-0.6472777128219604,0.17869560420513153,
0,2023-09-09 22:20:34.0510,02:17,10,1,2023-09-09 22:20:56.1620,1694316056.162119,-0.00030866035376675427,-0.008857673965394497,-0.00202293717302382,-0.002044677734375,-0.0677337646484375,-0.99774169921875,104.42723083496094,-27.888137817382812,-39.20588684082031,2023-09-09 22:20:55.7770,1694316055.776568,-0.00515323132276535,-0.009402221068739891,-0.0032592981588095427,-0.7216795682907104,-0.6621549725532532,0.18814074993133545,
0,2023-09-09 22:20:34.0510,02:17,10,1,2023-09-09 22:20:56.2610,1694316056.2614698,0.0006319681415334344,-0.0036213663406670094,-0.0035502600949257612,-0.000274658203125,-0.0673828125,-0.998382568359375,104.34849548339844,-27.737472534179688,-38.993072509765625,2023-09-09 22:20:55.8760,1694316055.876287,0.0028742686845362186,0.00573558546602726,-0.008679996244609356,-0.7255706191062927,-0.6558226346969604,0.1793057918548584,
0,2023-09-09 22:20:34.0510,02:17,10,1,2023-09-09 22:20:56.3620,1694316056.3616672,-0.0018469021888449788,-0.006449377164244652,-0.0006775081856176257,-0.0018463134765625,-0.067047119140625,-0.9994049072265625,104.34449768066406,-27.902725219726562,-39.23966979980469,2023-09-09 22:20:55.9760,1694316055.976201,-0.002160770120099187,-0.005506549030542374,-0.0028605565894395113,-0.7227479219436646,-0.6657866835594177,0.17930589616298676,
0,2023-09-09 22:20:34.0510,02:17,10,1,2023-09-09 22:20:56.4640,1694316056.463674,-0.000830107310321182,-0.007757788058370352,-0.0017446368001401424,0.0018310546875,-0.06781005859375,-0.9981536865234375,104.27937316894531,-27.707443237304688,-39.24961853027344,2023-09-09 22:20:56.0760,1694316056.076137,-0.003633498214185238,0.0007425583899021149,-0.0069188144989311695,-0.7222747802734375,-0.6573180556297302,0.18507373332977295,
0,2023-09-09 22:20:34.0510,02:17,10,1,2023-09-09 22:20:56.5610,1694316056.5607529,-0.0023608922492712736,-0.0018695390317589045,-0.00350365461781621,-0.0005950927734375,-0.0663909912109375,-0.997528076171875,104.32298278808594,-27.569625854492188,-39.11309814453125,2023-09-09 22:20:56.1760,1694316056.1758041,-0.0008373791351914406,0.02083863876760006,0.005555531941354275,-0.7214354872703552,-0.6580656170845032,0.17279034852981567,
0,2023-09-09 22:20:34.0510,02:17,10,1,2023-09-09 22:20:56.6630,1694316056.662547,0.0005105279851704836,-0.002746518002822995,-0.00586774293333292,0.0,-0.06842041015625,-1.000762939453125,104.2039794921875,-27.598358154296875,-39.246368408203125,2023-09-09 22:20:56.2760,1694316056.275673,-0.0019288759212940931,0.003065766766667366,-0.007133033126592636,-0.7288360595703125,-0.6561278104782104,0.1749265044927597,
0,2023-09-09 22:20:34.0510,02:17,10,1,2023-09-09 22:20:56.7610,1694316056.760597,-0.00202320353128016,-0.006582002621144056,-0.005043494515120983,0.000701904296875,-0.0687255859375,-1.0001068115234375,104.23725891113281,-27.868484497070312,-38.96195983886719,2023-09-09 22:20:56.3760,1694316056.375546,0.03549093380570412,-0.02283347398042679,0.003512155031785369,-0.728973388671875,-0.6557311415672302,0.17607101798057556,
0,2023-09-09 22:20:34.0510,02:17,10,1,2023-09-09 22:20:56.8620,1694316056.862014,-0.0037550569977611303,-0.0034762241411954165,-0.006665625609457493,-7.62939453125e-05,-0.068267822265625,-1.0010986328125,104.28964233398438,-27.746871948242188,-39.23658752441406,2023-09-09 22:20:56.4750,1694316056.475496,0.0009677782654762268,0.021204955875873566,-0.004319369327276945,-0.7267454862594604,-0.6627196073532104,0.1728513538837433,
0,2023-09-09 22:20:34.0510,02:17,10,1,2023-09-09 22:20:56.9610,1694316056.961011,6.231796578504145e-05,-0.002560629276558757,-0.002957174088805914,-0.001739501953125,-0.0679168701171875,-1.001007080078125,104.12762451171875,-27.896148681640625,-39.19036865234375,2023-09-09 22:20:56.5750,1694316056.5750961,-0.018654724583029747,0.013693377375602722,-0.0212694238871336,-0.7328491806983948,-0.6544189453125,0.17904651165008545,
0,2023-09-09 22:20:34.0510,02:17,10,1,2023-09-09 22:20:57.0620,1694316057.0624928,-4.28768944402691e-05,0.00019574233738239855,-0.00686190091073513,0.002777099609375,-0.0698699951171875,-0.9975128173828125,104.32606506347656,-27.588882446289062,-39.07293701171875,2023-09-09 22:20:56.6750,1694316056.6752682,0.0018373001366853714,-0.023579027503728867,-0.006073327269405127,-0.7224273681640625,-0.6616210341453552,0.18563829362392426,
0,2023-09-09 22:20:34.0510,02:17,10,1,2023-09-09 22:20:57.1610,1694316057.1614342,0.00029294771957211196,-0.0041161817498505116,-0.003306048223748803,0.0037689208984375,-0.069183349609375,-0.9996490478515625,104.29788208007812,-27.638336181640625,-39.2567138671875,2023-09-09 22:20:56.7750,1694316056.77485,0.004696803167462349,0.007623766548931599,-0.02569473162293434,-0.72705078125,-0.6568908095359802,0.1830289661884308,
0,2023-09-09 22:20:34.0510,02:17,10,1,2023-09-09 22:20:57.2620,1694316057.2620249,-0.0027838023379445076,-0.0020088222809135914,-0.002766491612419486,-0.0013275146484375,-0.068206787109375,-1.0006561279296875,104.35379028320312,-27.79974365234375,-38.81587219238281,2023-09-09 22:20:56.8750,1694316056.874597,0.015332070179283619,0.008053467608988285,-0.016664719209074974,-0.72265625,-0.6647796630859375,0.17332449555397034,
0,2023-09-09 22:20:34.0510,02:17,10,1,2023-09-09 22:20:57.3600,1694316057.360322,-0.004619785584509373,-0.00452737370505929,-0.0025132251903414726,0.0012969970703125,-0.068878173828125,-0.999542236328125,104.19151306152344,-27.658004760742188,-39.19667053222656,2023-09-09 22:20:56.9750,1694316056.974608,0.022403694689273834,-0.00403968058526516,-0.0015944899059832096,-0.7216338515281677,-0.6673582792282104,0.16908247768878937,
0,2023-09-09 22:20:34.0510,02:17,10,1,2023-09-09 22:20:57.4610,1694316057.4613261,-0.002388855442404747,-0.003138801548629999,-0.00430207047611475,0.002593994140625,-0.0672760009765625,-0.9977874755859375,104.352294921875,-27.787002563476562,-39.31103515625,2023-09-09 22:20:57.0750,1694316057.074658,0.005865131504833698,-0.0021620187908411026,0.006844035349786282,-0.7277679443359375,-0.6643218994140625,0.17135611176490784,
0,2023-09-09 22:20:34.0510,02:17,10,1,2023-09-09 22:20:57.5620,1694316057.562199,-0.002192846732214093,-0.0027473168447613716,-0.004053597338497639,-0.0010833740234375,-0.067291259765625,-0.9966888427734375,104.2852783203125,-27.739578247070312,-38.990264892578125,2023-09-09 22:20:57.1740,1694316057.174268,-0.004521995782852173,-0.011149655096232891,-0.0139559181407094,-0.724334716796875,-0.6625670790672302,0.1731565296649933,
0,2023-09-09 22:20:34.0510,02:17,10,1,2023-09-09 22:20:57.6610,1694316057.6612139,-0.0012950951931998134,-0.004565723240375519,-0.00472391489893198,0.001739501953125,-0.0662841796875,-0.9981231689453125,104.36087036132812,-27.7030029296875,-38.97023010253906,2023-09-09 22:20:57.2740,1694316057.274208,0.028127891942858696,-0.03907596319913864,-0.034473344683647156,-0.7283936142921448,-0.6591643691062927,0.17832937836647034,
0,2023-09-09 22:20:34.0510,02:17,10,1,2023-09-09 22:20:57.7620,1694316057.761806,-0.0028735508676618338,-0.005345230456441641,-0.002127865795046091,0.0005035400390625,-0.0661773681640625,-0.998077392578125,104.30998229980469,-27.344253540039062,-39.139495849609375,2023-09-09 22:20:57.3740,1694316057.3739781,-0.0023485233541578054,-0.045108020305633545,-0.014985395595431328,-0.7097014784812927,-0.6826170682907104,0.19662459194660187,
0,2023-09-09 22:20:34.0510,02:17,10,1,2023-09-09 22:20:57.8620,1694316057.861699,-0.0027166905347257853,-0.0065074339509010315,-0.0035958001390099525,-0.0040740966796875,-0.0668182373046875,-0.99658203125,104.33596801757812,-27.679519653320312,-38.85552978515625,2023-09-09 22:20:57.4740,1694316057.47371,-0.01216253824532032,-0.02522113360464573,-0.010254024527966976,-0.7184447050094604,-0.6682127714157104,0.2050168812274933,
0,2023-09-09 22:20:34.0510,02:17,10,1,2023-09-09 22:20:57.9600,1694316057.9604259,0.00035127095179632306,-0.0004426173691172153,-0.0037939392495900393,0.0005035400390625,-0.068450927734375,-0.9999237060546875,104.40997314453125,-27.650619506835938,-38.74607849121094,2023-09-09 22:20:57.5740,1694316057.573662,0.00010711094364523888,0.002525943797081709,-0.007575782481580973,-0.7217864394187927,-0.660781741142273,0.1956937313079834,
0,2023-09-09 22:20:34.0510,02:17,10,1,2023-09-09 22:20:58.0620,1694316058.062032,-0.002615756820887327,-0.00518837058916688,-0.0035867453552782536,0.0019378662109375,-0.0686187744140625,-1.0011444091796875,104.28042602539062,-27.496353149414062,-38.8095703125,2023-09-09 22:20:57.6730,1694316057.673403,-0.009327136911451817,0.008290356025099754,-0.004107548389583826,-0.7126618027687073,-0.671295166015625,0.19438156485557556,
0,2023-09-09 22:20:34.0510,02:17,10,1,2023-09-09 22:20:58.1620,1694316058.1617088,-4.793690095539205e-06,-0.006588927004486322,-0.0021944446489214897,-0.0019073486328125,-0.06829833984375,-0.998992919921875,104.35507202148438,-27.813766479492188,-38.913299560546875,2023-09-09 22:20:57.7730,1694316057.773247,0.015586468391120434,0.02607547864317894,0.006582246627658606,-0.7170563340187073,-0.6701354384422302,0.18582139909267426,
0,2023-09-09 22:20:34.0510,02:17,10,1,2023-09-09 22:20:58.2620,1694316058.262126,-0.0006191849242895842,-0.004589691758155823,-0.003061037277802825,0.00115966796875,-0.06787109375,-0.9996490478515625,104.37448120117188,-27.62109375,-39.2373046875,2023-09-09 22:20:57.8730,1694316057.87307,0.005947156809270382,0.031144272536039352,0.01059762854129076,-0.7194671630859375,-0.669357180595398,0.18547044694423676,
0,2023-09-09 22:20:34.0510,02:17,10,1,2023-09-09 22:20:58.3640,1694316058.363597,-0.0011262508342042565,-0.004055728204548359,-0.0020764668006449938,-0.00030517578125,-0.067413330078125,-0.99688720703125,104.35710144042969,-27.821975708007812,-39.13691711425781,2023-09-09 22:20:57.9730,1694316057.972959,0.008048191666603088,0.03601479530334473,0.006946667563170195,-0.7151337265968323,-0.66607666015625,0.17996208369731903,
0,2023-09-09 22:20:34.0510,02:17,10,1,2023-09-09 22:20:58.4620,1694316058.461806,-0.00020399813365656883,-0.004214984830468893,-0.003622697899118066,0.000885009765625,-0.06781005859375,-0.9999542236328125,104.369140625,-27.895355224609375,-39.28175354003906,2023-09-09 22:20:58.0730,1694316058.0729098,0.009282167069613934,0.009421533904969692,0.0058836000971496105,-0.7144623398780823,-0.671234130859375,0.17654402554035187,
0,2023-09-09 22:20:34.0510,02:17,10,1,2023-09-09 22:20:58.5610,1694316058.5610828,-0.0033159018494188786,-0.0032408006954938173,-0.0021662150975316763,0.001373291015625,-0.068389892578125,-1.0006561279296875,104.21647644042969,-27.819183349609375,-39.258209228515625,2023-09-09 22:20:58.1730,1694316058.1727018,0.03355441614985466,-0.034004103392362595,-0.01857377216219902,-0.7190399169921875,-0.6705015897750854,0.18280014395713806,
0,2023-09-09 22:20:34.0510,02:17,10,1,2023-09-09 22:20:58.6620,1694316058.662039,-0.0028538433834910393,-0.0029968551825731993,-0.0031489215325564146,-0.0003814697265625,-0.069091796875,-0.999298095703125,104.3099365234375,-27.91265869140625,-39.214111328125,2023-09-09 22:20:58.2730,1694316058.272585,-0.02740553952753544,0.0014323163777589798,-0.004797007422894239,-0.7191925644874573,-0.670013427734375,0.19512927532196045,
0,2023-09-09 22:20:34.0510,02:17,10,1,2023-09-09 22:20:58.7620,1694316058.761966,-0.0008165251929312944,-0.0059449742548167706,-0.0019385149935260415,0.0008087158203125,-0.067413330078125,-0.9984893798828125,104.31224060058594,-27.85577392578125,-38.9437255859375,2023-09-09 22:20:58.3720,1694316058.372281,0.0009706409182399511,0.007219498977065086,-0.00266484753228724,-0.7078704237937927,-0.666274905204773,0.18473809957504272,
0,2023-09-09 22:20:34.0510,02:17,10,1,2023-09-09 22:20:58.8620,1694316058.861712,-0.005318066570907831,-0.005849633365869522,-0.0015270565636456013,-0.0008544921875,-0.0673828125,-0.996307373046875,104.42344665527344,-28.157196044921875,-39.26643371582031,2023-09-09 22:20:58.4720,1694316058.472187,0.026181189343333244,-0.010187986306846142,-0.013477813452482224,-0.713363766670227,-0.659225583076477,0.18043509125709534,
0,2023-09-09 22:20:34.0510,02:17,10,1,2023-09-09 22:20:58.9610,1694316058.960808,-0.0037140443455427885,-0.005685849115252495,-0.0024290692526847124,-0.0003814697265625,-0.066192626953125,-0.9952850341796875,104.37040710449219,-27.997299194335938,-39.050811767578125,2023-09-09 22:20:58.5720,1694316058.57204,0.05036621913313866,0.02641037106513977,-0.02539176493883133,-0.7204285264015198,-0.6681976318359375,0.17047102749347687,
0,2023-09-09 22:20:34.0510,02:17,10,1,2023-09-09 22:20:59.0630,1694316059.0630941,0.0005038700764998794,0.0004146541759837419,-0.0013960290234535933,-0.0018768310546875,-0.0681304931640625,-1.00115966796875,104.35450744628906,-27.812759399414062,-38.981719970703125,2023-09-09 22:20:58.6720,1694316058.67184,0.003533068113029003,0.037869684398174286,0.031047077849507332,-0.7138976454734802,-0.6778257489204407,0.1828763633966446,
0,2023-09-09 22:20:34.0510,02:17,10,1,2023-09-09 22:20:59.1610,1694316059.161295,-0.0033337450586259365,-0.0039265644736588,-0.005501824431121349,-0.0001983642578125,-0.0681915283203125,-0.9986114501953125,104.28361511230469,-27.915130615234375,-38.95768737792969,2023-09-09 22:20:58.7720,1694316058.771591,-0.029819561168551445,0.03643956780433655,-0.003096778877079487,-0.7202452421188354,-0.666610598564148,0.19210803508758545,
0,2023-09-09 22:20:34.0510,02:17,10,1,2023-09-09 22:20:59.2610,1694316059.2610168,-0.003061836352571845,-0.004266650415956974,-8.894957863958552e-05,0.000396728515625,-0.0692138671875,-1.0003662109375,104.47029113769531,-28.076400756835938,-39.03163146972656,2023-09-09 22:20:58.8720,1694316058.87154,0.0010168467415496707,-0.020338624715805054,0.002666334854438901,-0.6996307969093323,-0.6832427382469177,0.18630968034267426,
0,2023-09-09 22:20:34.0510,02:17,10,1,2023-09-09 22:20:59.3610,1694316059.3611479,-0.0036602485924959183,-0.0038485340774059296,-0.004245078656822443,9.1552734375e-05,-0.06829833984375,-0.998443603515625,104.33213806152344,-27.925689697265625,-39.02557373046875,2023-09-09 22:20:58.9710,1694316058.971404,0.012020961381494999,-0.0032551130279898643,0.0007809833623468876,-0.711456298828125,-0.6688231229782104,0.19012436270713806,
0,2023-09-09 22:20:34.0510,02:17,10,1,2023-09-09 22:20:59.4630,1694316059.46306,0.00010812433902174234,-0.0031587753910571337,-0.00446825148537755,-0.0005035400390625,-0.0675201416015625,-0.999664306640625,104.32267761230469,-27.735382080078125,-39.132080078125,2023-09-09 22:20:59.0710,1694316059.071258,0.001235292642377317,0.014296982437372208,0.010873631574213505,-0.718536376953125,-0.6673125624656677,0.17861928045749664,
0,2023-09-09 22:20:34.0510,02:17,10,1,2023-09-09 22:20:59.5600,1694316059.560461,-0.0014149374328553677,-0.006935936864465475,-0.0044046021066606045,0.000885009765625,-0.067138671875,-0.99969482421875,104.34571838378906,-28.139358520507812,-38.92082214355469,2023-09-09 22:20:59.1710,1694316059.171009,-0.019272511824965477,-6.65104016661644e-05,0.01329517737030983,-0.7105712890625,-0.6739653944969177,0.18119798600673676,
0,2023-09-09 22:20:34.0510,02:17,10,1,2023-09-09 22:20:59.6620,1694316059.662006,-0.0008442220860160887,-0.0015108112711459398,-0.004284227266907692,-0.000823974609375,-0.0693511962890625,-1.000762939453125,104.33197021484375,-27.839035034179688,-38.94720458984375,2023-09-09 22:20:59.2720,1694316059.2721481,-0.008839845657348633,-0.0031688259914517403,-0.01161776203662157,-0.71929931640625,-0.6629180312156677,0.17623889446258545,
0,2023-09-09 22:20:34.0510,02:17,10,1,2023-09-09 22:20:59.7610,1694316059.760695,-0.003346261801198125,-0.005790244787931442,-0.00430153775960207,-0.00018310546875,-0.068145751953125,-0.9996185302734375,104.24162292480469,-27.792572021484375,-38.94847106933594,2023-09-09 22:20:59.3710,1694316059.3707252,0.02355617843568325,-0.024850953370332718,-0.01601344347000122,-0.7222899794578552,-0.6668090224266052,0.17964161932468414,
0,2023-09-09 22:20:34.0510,02:17,10,1,2023-09-09 22:20:59.8630,1694316059.862927,-0.0008777778712101281,-0.005242166109383106,-0.0019971043802797794,0.0001068115234375,-0.0676422119140625,-0.997528076171875,104.46499633789062,-27.717391967773438,-39.07945251464844,2023-09-09 22:20:59.4710,1694316059.47066,-0.006466169375926256,-0.0060900477692484856,-0.0012223795056343079,-0.7123259902000427,-0.6753538846969604,0.19056685268878937,
0,2023-09-09 22:20:34.0510,02:17,10,1,2023-09-09 22:20:59.9610,1694316059.9611611,-0.001172323478385806,-0.0039084553718566895,-0.0031499869655817747,-0.0005645751953125,-0.068023681640625,-0.9980621337890625,104.42510986328125,-27.850692749023438,-39.07752990722656,2023-09-09 22:20:59.5700,1694316059.570405,0.011697853915393353,0.008724983781576157,0.007340382784605026,-0.7141112685203552,-0.6690672039985657,0.17593374848365784,
0,2023-09-09 22:20:34.0510,02:17,10,1,2023-09-09 22:21:00.0660,1694316060.065789,-0.0019350528018549085,-0.0019504991360008717,-0.003565173828974366,-0.0002899169921875,-0.0673370361328125,-0.997650146484375,104.38711547851562,-27.855789184570312,-38.897491455078125,2023-09-09 22:20:59.6700,1694316059.670301,0.03453326225280762,0.005102019757032394,-0.006033013574779034,-0.7194673418998718,-0.6688843369483948,0.17921437323093414,
0,2023-09-09 22:20:34.0510,02:17,10,1,2023-09-09 22:21:00.1590,1694316060.159421,-0.002892192918807268,-0.006847519893199205,-0.0020956413354724646,-0.0002593994140625,-0.06732177734375,-0.9969940185546875,104.32278442382812,-28.006103515625,-39.22572326660156,2023-09-09 22:20:59.7700,1694316059.770201,-0.010347994044423103,0.010091585107147694,-0.0005842862301506102,-0.7250975966453552,-0.6716917753219604,0.1886441558599472,
0,2023-09-09 22:20:34.0510,02:17,10,1,2023-09-09 22:21:00.2640,1694316060.263654,-0.005520200356841087,-0.0029033781029284,-0.0046152579598128796,0.0012664794921875,-0.068145751953125,-0.998504638671875,104.27458190917969,-28.055511474609375,-38.54331970214844,2023-09-09 22:20:59.8700,1694316059.869823,-0.014046724885702133,-0.002333126962184906,0.0012585546355694532,-0.7193603515625,-0.6641082167625427,0.18698106706142426,
0,2023-09-09 22:20:34.0510,02:17,10,1,2023-09-09 22:21:00.3610,1694316060.3611221,-0.004569718148559332,-0.004567321389913559,-0.004237622022628784,3.0517578125e-05,-0.067718505859375,-0.9971160888671875,104.40275573730469,-28.198211669921875,-38.8096923828125,2023-09-09 22:20:59.9700,1694316059.9697762,-0.0033719760831445456,0.006995926611125469,-0.0011782378423959017,-0.715179443359375,-0.6667937636375427,0.18524152040481567,
0,2023-09-09 22:20:34.0510,02:17,10,1,2023-09-09 22:21:00.4630,1694316060.462929,-0.002763562137261033,-0.004743622615933418,-0.0028506475500762463,-0.0009002685546875,-0.0676422119140625,-0.9975128173828125,104.37384033203125,-27.946395874023438,-38.84635925292969,2023-09-09 22:21:00.0700,1694316060.069812,-0.0005803839303553104,-0.00019740499556064606,-0.002148593543097377,-0.716278076171875,-0.6660766005516052,0.18183881044387817,
0,2023-09-09 22:20:34.0510,02:17,10,1,2023-09-09 22:21:00.5630,1694316060.563117,-0.0002162486780434847,-0.003674895968288183,-0.0026221484877169132,0.0002593994140625,-0.0668792724609375,-0.998504638671875,104.35246276855469,-27.806625366210938,-38.95292663574219,2023-09-09 22:21:00.1700,1694316060.169641,0.011004766449332237,-0.008621514774858952,-0.010095799341797829,-0.727783203125,-0.6632079482078552,0.18164044618606567,
0,2023-09-09 22:20:34.0510,02:17,10,1,2023-09-09 22:21:00.6620,1694316060.661768,-0.0022447784431278706,-0.00461712246760726,-0.001059405505657196,0.000946044921875,-0.067596435546875,-1.001129150390625,104.42222595214844,-27.792587280273438,-38.99925231933594,2023-09-09 22:21:00.2690,1694316060.2692552,-0.022199325263500214,0.03151778131723404,0.011743220500648022,-0.7169342041015625,-0.666641116142273,0.18930047750473022,
0,2023-09-09 22:20:34.0510,02:17,10,1,2023-09-09 22:21:00.7610,1694316060.761427,-0.004757204558700323,-0.003781156148761511,-0.0017060210229828954,-0.0017242431640625,-0.0689544677734375,-1.000091552734375,104.30606079101562,-27.611572265625,-38.98406982421875,2023-09-09 22:21:00.3690,1694316060.369166,0.008176289498806,0.007322430610656738,0.007399271242320538,-0.7112274169921875,-0.674728274345398,0.17680348455905914,
0,2023-09-09 22:20:34.0510,02:17,10,1,2023-09-09 22:21:00.8630,1694316060.8631191,-0.0032442628871649504,-0.0041526672430336475,-0.0030892668291926384,-0.0003509521484375,-0.0679473876953125,-0.999053955078125,104.42237854003906,-27.746932983398438,-39.0245361328125,2023-09-09 22:21:00.4690,1694316060.469006,0.016064506024122238,0.003146460745483637,-0.0007851217524148524,-0.7225799560546875,-0.65972900390625,0.18289165198802948,
0,2023-09-09 22:20:34.0510,02:17,10,1,2023-09-09 22:21:00.9610,1694316060.960964,-0.002296177437528968,-0.005601692944765091,-0.004165716469287872,-0.001007080078125,-0.0680694580078125,-0.99755859375,104.41816711425781,-27.747467041015625,-39.16276550292969,2023-09-09 22:21:00.5690,1694316060.568644,-0.002414569491520524,0.016979051753878593,0.0047998931258916855,-0.7200468182563782,-0.6703183650970459,0.1852262318134308,
0,2023-09-09 22:20:34.0510,02:17,10,1,2023-09-09 22:21:01.0610,1694316061.0608459,-0.0006263754912652075,-0.006583068054169416,-0.0024165522772818804,0.000579833984375,-0.0677642822265625,-0.999420166015625,104.31620788574219,-27.872756958007812,-38.947296142578125,2023-09-09 22:21:00.6690,1694316060.668693,-0.0034086608793586493,-0.0037966668605804443,0.004830885678529739,-0.710800051689148,-0.6707762479782104,0.1855924427509308,
0,2023-09-09 22:20:34.0510,02:17,10,1,2023-09-09 22:21:01.1610,1694316061.161402,-0.000594950164668262,-0.0030509172938764095,-0.0030152308754622936,-0.0007171630859375,-0.0672760009765625,-0.9981536865234375,104.39321899414062,-27.762985229492188,-39.15238952636719,2023-09-09 22:21:00.7690,1694316060.768529,-0.01827489212155342,-0.002891858108341694,0.0012531618122011423,-0.70880126953125,-0.6715545058250427,0.1834867149591446,
0,2023-09-09 22:20:34.0510,02:17,10,1,2023-09-09 22:21:01.2630,1694316061.263175,-0.0021696772892028093,-0.006570284720510244,-0.00012144014181103557,-0.0001678466796875,-0.0666351318359375,-0.9967041015625,104.19375610351562,-27.67950439453125,-38.85343933105469,2023-09-09 22:21:00.8680,1694316060.868288,0.0055076684802770615,-0.01999547705054283,-0.018088843673467636,-0.727371096611023,-0.6640013456344604,0.1847684681415558,
0,2023-09-09 22:20:34.0510,02:17,10,1,2023-09-09 22:21:01.3610,1694316061.360557,0.002555303042754531,-0.005732986610382795,-0.005083441734313965,-0.0001220703125,-0.06884765625,-0.9978790283203125,104.35136413574219,-27.832427978515625,-38.92771911621094,2023-09-09 22:21:00.9680,1694316060.968267,-0.01823214814066887,0.007767178118228912,-0.005415593273937702,-0.7159576416015625,-0.6734312772750854,0.18634015321731567,
0,2023-09-09 22:20:34.0510,02:17,10,1,2023-09-09 22:21:01.4630,1694316061.462696,-0.0024580976460129023,-0.006777478381991386,-0.001719603082165122,-0.00030517578125,-0.0681915283203125,-0.999664306640625,104.34527587890625,-27.70416259765625,-39.347076416015625,2023-09-09 22:21:01.0680,1694316061.0681581,-0.0012963747140020132,0.011766580864787102,-0.007975123822689056,-0.7237548232078552,-0.6595152616500854,0.17019641399383545,
0,2023-09-09 22:20:34.0510,02:17,10,1,2023-09-09 22:21:01.5600,1694316061.560281,-0.0007331682136282325,-0.002798982197418809,-0.003884486621245742,-0.00042724609375,-0.0679779052734375,-0.99932861328125,104.37918090820312,-27.764862060546875,-39.51536560058594,2023-09-09 22:21:01.1680,1694316061.16784,0.030180592089891434,-0.024791963398456573,0.012813777662813663,-0.7180479764938354,-0.6691282391548157,0.17503339052200317,
0,2023-09-09 22:20:34.0510,02:17,10,1,2023-09-09 22:21:01.6610,1694316061.661162,0.00018562232435215265,-0.003172091208398342,-0.004544950556010008,0.001953125,-0.0667877197265625,-0.99822998046875,104.36790466308594,-27.884796142578125,-39.516632080078125,2023-09-09 22:21:01.2680,1694316061.267507,0.003247310873121023,-0.004240748472511768,-0.004660453647375107,-0.7358856201171875,-0.6575774550437927,0.1913907825946808,
0,2023-09-09 22:20:34.0510,02:17,10,1,2023-09-09 22:21:01.7620,1694316061.761508,-0.002027997048571706,-0.001612011343240738,-0.005116997752338648,0.000457763671875,-0.067108154296875,-0.9980010986328125,104.17611694335938,-27.764663696289062,-38.94256591796875,2023-09-09 22:21:01.3680,1694316061.3675508,-0.026845810934901237,0.007668773643672466,-0.010345004498958588,-0.7227477431297302,-0.6575927138328552,0.18690477311611176,
0,2023-09-09 22:20:34.0510,02:17,10,1,2023-09-09 22:21:01.8620,1694316061.8615441,-0.001065264455974102,-0.004978513345122337,-0.0010892328573390841,-0.001983642578125,-0.0679931640625,-0.9983367919921875,104.23249816894531,-27.522216796875,-39.24568176269531,2023-09-09 22:21:01.4670,1694316061.467318,-0.006592936348170042,-0.021216802299022675,0.00018403574358671904,-0.717941403388977,-0.662139892578125,0.17439258098602295,
0,2023-09-09 22:20:34.0510,02:17,10,1,2023-09-09 22:21:01.9610,1694316061.960907,-2.8495824153651483e-05,-0.003591272747144103,-0.0008127967594191432,0.000274658203125,-0.0689544677734375,-1.0013275146484375,104.43128967285156,-27.612579345703125,-39.24742126464844,2023-09-09 22:21:01.5670,1694316061.567192,-0.02867300435900688,-0.019005179405212402,0.01058264821767807,-0.705169677734375,-0.6797179579734802,0.19657880067825317,
