SessionID,SessionDate,SessionDuration,SessionFrequency,RecordID,Timestamp,timeIntervalSince1970,GyroX,GyroY,GyroZ,AccX,AccY,AccZ,MagX,MagY,MagZ,WatchTimestamp,WatchtImeIntervalSince1970,WatchGyroX,WatchGyroY,WatchGyroZ,WatchAccX,WatchAccY,WatchAccZ
0,2023-09-09 21:25:40.2710,03:07,10,1,2023-09-09 21:25:40.3840,1694312740.384046,-0.002037584548816085,-0.0044016726315021515,-0.0028093685396015644,-0.0156097412109375,0.0016937255859375,-1.0016021728515625,104.25624084472656,-24.759613037109375,-41.77571105957031,2023-09-09 21:25:40.0510,1694312740.051275,-0.028048761188983917,0.08236884325742722,-0.06826601922512054,-0.10585010051727295,0.11358631402254105,-0.9590606689453125,
0,2023-09-09 21:25:40.2710,03:07,10,1,2023-09-09 21:25:40.4690,1694312740.469229,-0.002037584548816085,-0.0044016726315021515,-0.0028093685396015644,-0.015106201171875,0.0014495849609375,-1.0028076171875,104.25624084472656,-24.759613037109375,-41.77571105957031,2023-09-09 21:25:40.2200,1694312740.219728,0.023437269032001495,0.008373047225177288,0.0055685522966086864,-0.10121142864227295,0.11962878704071045,-0.9999542832374573,
0,2023-09-09 21:25:40.2710,03:07,10,1,2023-09-09 21:25:40.5690,1694312740.568973,-0.0030426615849137306,-0.0017446368001401424,-0.002302302746102214,-0.015869140625,0.002105712890625,-0.9998931884765625,104.30513000488281,-24.715362548828125,-42.10382080078125,2023-09-09 21:25:40.2490,1694312740.249456,-0.010914115235209465,-0.011740876361727715,-0.02608787827193737,-0.10179126262664795,0.09588611125946045,-0.9797515869140625,
0,2023-09-09 21:25:40.2710,03:07,10,1,2023-09-09 21:25:40.6840,1694312740.6835089,-0.0001483380765421316,-0.00549276964738965,-0.0021406488958746195,-0.0150146484375,0.0022430419921875,-1.002044677734375,104.47415161132812,-25.037109375,-40.365234375,2023-09-09 21:25:40.3490,1694312740.3493161,0.06320032477378845,-0.01839824765920639,-0.008533785119652748,-0.09918201714754105,0.10388171672821045,-0.9868622422218323,
0,2023-09-09 21:25:40.2710,03:07,10,1,2023-09-09 21:25:40.7690,1694312740.7690759,-0.0001483380765421316,-0.00549276964738965,-0.0021406488958746195,-0.016265869140625,0.002105712890625,-1.0006561279296875,104.47415161132812,-25.037109375,-40.365234375,2023-09-09 21:25:40.4490,1694312740.449121,0.031692467629909515,-0.03624621778726578,-0.021049709990620613,-0.09585560113191605,0.08796680718660355,-0.9853363037109375,
0,2023-09-09 21:25:40.2710,03:07,10,1,2023-09-09 21:25:40.8690,1694312740.869458,-0.002133458387106657,-0.005799565929919481,-0.003328418591991067,-0.017547607421875,0.0024871826171875,-1.000823974609375,104.36346435546875,-24.599105834960938,-41.646514892578125,2023-09-09 21:25:40.5490,1694312740.549039,-0.008884120732545853,-0.0345817431807518,-0.06414398550987244,-0.11495959013700485,0.07656848430633545,-0.9863739013671875,
0,2023-09-09 21:25:40.2710,03:07,10,1,2023-09-09 21:25:40.9690,1694312740.969129,-0.002145176287740469,-0.006598780397325754,-0.0030240193009376526,-0.01611328125,0.002044677734375,-1.0015106201171875,104.55194091796875,-25.103927612304688,-41.06867980957031,2023-09-09 21:25:40.6490,1694312740.6490889,0.08692756295204163,-0.02335212752223015,-0.0029981713742017746,-0.10288988798856735,0.11869800090789795,-1.0119476318359375,
0,2023-09-09 21:25:40.2710,03:07,10,1,2023-09-09 21:25:41.0690,1694312741.0688949,-0.0032003207597881556,-0.004013117402791977,-0.004010987002402544,-0.015106201171875,0.00244140625,-1.0006561279296875,104.47592163085938,-24.884765625,-41.39955139160156,2023-09-09 21:25:40.7490,1694312740.749049,-0.03602559491991997,0.00510628055781126,-0.005955178290605545,-0.11206042021512985,0.06776416301727295,-1.0001678466796875,
0,2023-09-09 21:25:40.2710,03:07,10,1,2023-09-09 21:25:41.1840,1694312741.184029,-0.00017470336752012372,-0.004218979738652706,-0.0036631780676543713,-0.0163726806640625,0.00250244140625,-1.000701904296875,104.46842956542969,-24.842803955078125,-41.17877197265625,2023-09-09 21:25:40.8490,1694312740.848579,0.029638638719916344,-0.05114154517650604,0.011157228611409664,-0.10913074016571045,0.059326060116291046,-0.9524383544921875,
0,2023-09-09 21:25:40.2710,03:07,10,1,2023-09-09 21:25:41.2700,1694312741.269528,-0.00017470336752012372,-0.004218979738652706,-0.0036631780676543713,-0.015106201171875,0.00213623046875,-1.002227783203125,104.46842956542969,-24.842803955078125,-41.17877197265625,2023-09-09 21:25:40.9490,1694312740.948831,-0.0076470812782645226,-0.009238836355507374,-0.01716715283691883,-0.12469471246004105,0.08389271050691605,-0.9932709336280823,
0,2023-09-09 21:25:40.2710,03:07,10,1,2023-09-09 21:25:41.3720,1694312741.371602,-0.00196408131159842,-0.004441619850695133,-0.00350392097607255,-0.017181396484375,0.0017242431640625,-0.99908447265625,104.42247009277344,-24.605758666992188,-41.992950439453125,2023-09-09 21:25:41.0490,1694312741.048501,0.0808425024151802,-0.04383796080946922,0.015514394268393517,-0.12918078154325485,0.11338794976472855,-0.9818572998046875,
0,2023-09-09 21:25:40.2710,03:07,10,1,2023-09-09 21:25:41.4710,1694312741.471304,-0.0017622136510908604,-0.005000085104256868,-0.002773149637505412,-0.0157318115234375,0.0018310546875,-1.0014801025390625,104.30073547363281,-24.878585815429688,-41.40571594238281,2023-09-09 21:25:41.1480,1694312741.148416,0.0033106275368481874,-0.005139166489243507,-0.027779117226600647,-0.12599169462919235,0.04751574993133545,-0.99200439453125,
0,2023-09-09 21:25:40.2710,03:07,10,1,2023-09-09 21:25:41.5710,1694312741.571474,-0.00028628981090150774,-0.0039020637050271034,-0.004807271994650364,-0.015899658203125,0.0016021728515625,-1.00067138671875,104.3360595703125,-24.760574340820312,-41.34417724609375,2023-09-09 21:25:41.2480,1694312741.248127,0.0010566613636910915,-0.002886931411921978,-0.01285815890878439,-0.11410510540008545,0.08735644817352295,-0.9775848388671875,
0,2023-09-09 21:25:40.2710,03:07,10,1,2023-09-09 21:25:41.6700,1694312741.669887,0.0009179916232824326,-0.0046386937610805035,-0.004610997159034014,-0.0167388916015625,0.0024261474609375,-1.0010528564453125,104.30569458007812,-24.987442016601562,-41.930816650390625,2023-09-09 21:25:41.3480,1694312741.348092,0.023014023900032043,0.0034484630450606346,0.003931806422770023,-0.12676989287137985,0.07191456109285355,-0.9908447265625,
0,2023-09-09 21:25:40.2710,03:07,10,1,2023-09-09 21:25:41.7710,1694312741.7713819,0.00044048685231246054,-0.00512924836948514,-0.00415319949388504,-0.0169219970703125,0.002410888671875,-1.0008697509765625,104.32295227050781,-24.89306640625,-42.34576416015625,2023-09-09 21:25:41.4480,1694312741.447833,0.026079989969730377,-0.011848201975226402,-0.026524435728788376,-0.12326037138700485,0.08998095989227295,-0.9827423095703125,
0,2023-09-09 21:25:40.2710,03:07,10,1,2023-09-09 21:25:41.8710,1694312741.87127,-0.0003731088654603809,-0.002909769769757986,-0.00245090713724494,-0.0156402587890625,0.002899169921875,-1.0017852783203125,104.23359680175781,-24.650283813476562,-42.5440673828125,2023-09-09 21:25:41.5480,1694312741.547854,0.04092271625995636,-0.015299657359719276,-0.061956264078617096,-0.12420642375946045,0.07694996148347855,-0.975799560546875,
0,2023-09-09 21:25:40.2710,03:07,10,1,2023-09-09 21:25:41.9710,1694312741.971354,-0.001978462329134345,-0.0036573191173374653,-0.0024370586033910513,-0.0161895751953125,0.001129150390625,-1.0008392333984375,104.22538757324219,-24.8848876953125,-42.3731689453125,2023-09-09 21:25:41.6470,1694312741.647449,0.021511003375053406,0.008939767256379128,-0.0918862372636795,-0.14256273210048676,0.08755481243133545,-0.9929962158203125,
0,2023-09-09 21:25:40.2710,03:07,10,1,2023-09-09 21:25:42.0710,1694312742.07126,0.00028282770654186606,-0.004050401505082846,-0.005304217804223299,-0.0162200927734375,0.0013885498046875,-1.0019989013671875,104.23199462890625,-24.424896240234375,-42.48091125488281,2023-09-09 21:25:41.7470,1694312741.7474918,0.03313330560922623,-0.01433306373655796,-0.03450310230255127,-0.12168872356414795,0.07757557183504105,-0.9775238633155823,
0,2023-09-09 21:25:40.2710,03:07,10,1,2023-09-09 21:25:42.1710,1694312742.170685,-0.0005067995516583323,-0.002555303042754531,-0.002495914464816451,-0.0169525146484375,0.00115966796875,-1.0024566650390625,104.15830993652344,-24.4813232421875,-42.50202941894531,2023-09-09 21:25:41.8470,1694312741.8471909,-0.05710391327738762,0.014329738914966583,-0.03872154653072357,-0.12995898723602295,0.050887949764728546,-0.9897003173828125,
0,2023-09-09 21:25:40.2710,03:07,10,1,2023-09-09 21:25:42.2710,1694312742.271368,-0.0021164140198379755,-0.004199272487312555,-0.0033252229914069176,-0.0173797607421875,0.00067138671875,-1.0016937255859375,104.20443725585938,-24.66485595703125,-42.44551086425781,2023-09-09 21:25:41.9470,1694312741.946965,0.056111790239810944,-0.013935321010649204,0.000802459311671555,-0.12483203411102295,0.06327808648347855,-0.9860076904296875,
0,2023-09-09 21:25:40.2710,03:07,10,1,2023-09-09 21:25:42.3700,1694312742.3703809,-0.0007765777409076691,-0.0062309978529810905,-0.004727909807115793,-0.0158538818359375,0.001708984375,-1.0038299560546875,104.17726135253906,-24.70416259765625,-42.07293701171875,2023-09-09 21:25:42.0470,1694312742.047248,0.04359746724367142,-0.009436708875000477,-0.02870796248316765,-0.12898242473602295,0.061538584530353546,-0.9840087890625,
0,2023-09-09 21:25:40.2710,03:07,10,1,2023-09-09 21:25:42.4710,1694312742.4707088,-0.0022543659433722496,-0.0018967032665386796,-0.006569752003997564,-0.0173797607421875,0.001373291015625,-1.0006103515625,104.28028869628906,-24.568161010742188,-42.53633117675781,2023-09-09 21:25:42.1470,1694312742.146708,0.013419520109891891,-0.0028340667486190796,-0.012798470444977283,-0.12219226360321045,0.057113535702228546,-0.988189697265625,
0,2023-09-09 21:25:40.2710,03:07,10,1,2023-09-09 21:25:42.5710,1694312742.570761,0.002612028270959854,-0.0021025657188147306,-0.0022386531345546246,-0.01611328125,0.0032501220703125,-1.0015411376953125,104.19187927246094,-24.446441650390625,-42.24961853027344,2023-09-09 21:25:42.2470,1694312742.246859,0.025191757827997208,-0.007823499850928783,0.000783384486567229,-0.13507068157196045,0.07142627984285355,-0.9886016845703125,
0,2023-09-09 21:25:40.2710,03:07,10,1,2023-09-09 21:25:42.6710,1694312742.670532,-0.002198972040787339,-0.0038344194181263447,-0.0032493227627128363,-0.0168609619140625,0.002593994140625,-1.000091552734375,104.23115539550781,-24.572891235351562,-42.20599365234375,2023-09-09 21:25:42.3470,1694312742.346538,-0.07046879082918167,0.1051977276802063,-0.17149339616298676,-0.20677171647548676,0.030639532953500748,-1.0271453857421875,
0,2023-09-09 21:25:40.2710,03:07,10,1,2023-09-09 21:25:42.7710,1694312742.7714128,-0.0006985471700318158,-0.0027832696214318275,-0.0035148400347679853,-0.01519775390625,0.0034027099609375,-1.001068115234375,104.19674682617188,-24.6805419921875,-41.57417297363281,2023-09-09 21:25:42.4460,1694312742.446181,-0.32309722900390625,0.25206559896469116,-0.40432602167129517,-0.11981188505887985,0.003326311707496643,-1.0061798691749573,
0,2023-09-09 21:25:40.2710,03:07,10,1,2023-09-09 21:25:42.8710,1694312742.871221,-0.0012964267516508698,-0.00566880451515317,-0.0005994775565341115,-0.0161895751953125,0.001861572265625,-1.0001068115234375,104.11863708496094,-24.405227661132812,-41.58689880371094,2023-09-09 21:25:42.5460,1694312742.545994,-0.5667446255683899,0.40920063853263855,-0.6785645484924316,-0.13989242911338806,0.08914175629615784,-1.0176849365234375,
0,2023-09-09 21:25:40.2710,03:07,10,1,2023-09-09 21:25:42.9710,1694312742.9712172,0.00028309403569437563,-0.004494350403547287,-0.0035172367934137583,-0.01666259765625,0.0023956298828125,-1.0020904541015625,104.29638671875,-24.518798828125,-41.895172119140625,2023-09-09 21:25:42.6460,1694312742.645895,-0.46250414848327637,0.6732104420661926,-0.9922040700912476,-0.08032211661338806,0.13160698115825653,-1.013885498046875,
0,2023-09-09 21:25:40.2710,03:07,10,1,2023-09-09 21:25:43.0710,1694312743.0709162,-0.004896754398941994,-0.004187554586678743,-0.0034136399626731873,-0.0171661376953125,0.0025787353515625,-1.002899169921875,104.30900573730469,-24.867141723632812,-41.52020263671875,2023-09-09 21:25:42.7460,1694312742.74574,-0.519395649433136,0.7066283226013184,-1.5587671995162964,-0.25308211520314217,0.08303828537464142,-0.90777587890625,
0,2023-09-09 21:25:40.2710,03:07,10,1,2023-09-09 21:25:43.1720,1694312743.1716409,-0.0022945795208215714,-0.005312739871442318,-0.0024080302100628614,-0.0162811279296875,0.0030364990234375,-1.0015411376953125,104.33856201171875,-24.635543823242188,-41.90985107421875,2023-09-09 21:25:42.8460,1694312742.84557,-0.38250166177749634,0.666488528251648,-1.835539698600769,-0.07340984977781773,0.2528075873851776,-0.9292144775390625,
0,2023-09-09 21:25:40.2710,03:07,10,1,2023-09-09 21:25:43.2710,1694312743.2711592,-0.0028152274899184704,-0.004532434046268463,-0.001002680161036551,-0.016876220703125,0.002410888671875,-1.0015106201171875,104.23187255859375,-24.667678833007812,-42.151611328125,2023-09-09 21:25:42.9460,1694312742.945771,-0.5027859210968018,0.537729799747467,-1.4070392847061157,0.07353228330612183,0.436309814453125,-0.8879699110984802,
0,2023-09-09 21:25:40.2710,03:07,10,1,2023-09-09 21:25:43.3700,1694312743.370291,-0.001654089312069118,-0.004536428488790989,-0.001731320982798934,-0.0165557861328125,0.0020599365234375,-1.0009613037109375,104.43183898925781,-24.955596923828125,-41.87669372558594,2023-09-09 21:25:43.0450,1694312743.0450912,-0.11372211575508118,0.20083504915237427,-0.6638246178627014,0.005691707134246826,0.7057037651538849,-0.9392242431640625,
0,2023-09-09 21:25:40.2710,03:07,10,1,2023-09-09 21:25:43.4710,1694312743.471354,-0.0023638217244297266,-0.0032671659719198942,-0.0029529130551964045,-0.017120361328125,0.0015411376953125,-1.001739501953125,104.32237243652344,-24.622207641601562,-41.93513488769531,2023-09-09 21:25:43.1450,1694312743.14506,-0.05149716138839722,0.13161614537239075,-0.23679761588573456,0.3332674019038677,0.3140869736671448,-0.9880523681640625,
0,2023-09-09 21:25:40.2710,03:07,10,1,2023-09-09 21:25:43.5720,1694312743.571804,-0.0011358382180333138,-0.00720438314601779,-0.0037792918737977743,-0.0156402587890625,0.001556396484375,-1.0020751953125,104.35324096679688,-24.687103271484375,-41.95074462890625,2023-09-09 21:25:43.2450,1694312743.244766,0.7204251289367676,0.2323821783065796,0.03953011333942413,-0.009170353412628174,0.5287933945655823,-1.047027587890625,
0,2023-09-09 21:25:40.2710,03:07,10,1,2023-09-09 21:25:43.6700,1694312743.670212,-0.00358834327198565,0.0009925601771101356,-0.0038434739690274,-0.0187225341796875,0.002685546875,-0.99957275390625,104.32789611816406,-24.864349365234375,-42.11781311035156,2023-09-09 21:25:43.3450,1694312743.344841,0.6350932717323303,-0.04536541551351547,0.00425984151661396,0.12977617979049683,0.11465457081794739,-0.8107451796531677,
0,2023-09-09 21:25:40.2710,03:07,10,1,2023-09-09 21:25:43.7720,1694312743.771569,-0.0020841897930949926,-0.0043532028794288635,-0.004156928043812513,-0.01251220703125,0.0052032470703125,-1.0013275146484375,104.25405883789062,-24.658157348632812,-42.11836242675781,2023-09-09 21:25:43.4450,1694312743.444641,-0.5341612100601196,-0.5099599957466125,-0.05766690894961357,0.11151141673326492,0.3636017441749573,-0.845611572265625,
0,2023-09-09 21:25:40.2710,03:07,10,1,2023-09-09 21:25:43.8710,1694312743.870599,0.0017004283145070076,-0.006668821442872286,-0.0021662150975316763,-0.0151519775390625,0.00152587890625,-0.9996795654296875,104.32429504394531,-24.805252075195312,-42.34539794921875,2023-09-09 21:25:43.5440,1694312743.5444221,0.07698964327573776,0.24161416292190552,-0.22738690674304962,-0.13566572032868862,0.3577881157398224,-0.9490509033203125,
0,2023-09-09 21:25:40.2710,03:07,10,1,2023-09-09 21:25:43.9700,1694312743.970196,-0.001725728390738368,-0.002627474721521139,-0.0022421153262257576,-0.01715087890625,0.00128173828125,-0.9993896484375,104.24833679199219,-24.806671142578125,-42.37730407714844,2023-09-09 21:25:43.6440,1694312743.644295,0.011128270998597145,0.1885598599910736,0.2528722882270813,-0.001693539321422577,0.2237243950366974,-0.9245452880859375,
0,2023-09-09 21:25:40.2710,03:07,10,1,2023-09-09 21:25:44.0710,1694312744.070502,-0.0027166905347257853,-0.003403786104172468,-0.0007691209320910275,-0.0207366943359375,0.0014801025390625,-0.999908447265625,104.21023559570312,-24.451171875,-42.3056640625,2023-09-09 21:25:43.7440,1694312743.744166,-0.2659028172492981,0.04516168683767319,0.2067442089319229,0.06762712821364403,0.3530273735523224,-0.9373778700828552,
0,2023-09-09 21:25:40.2710,03:07,10,1,2023-09-09 21:25:44.1710,1694312744.1706228,-0.00038056570338085294,-0.0051534827798604965,-0.0006103964988142252,-0.0182342529296875,0.00030517578125,-1.0074005126953125,104.29457092285156,-24.787811279296875,-42.21067810058594,2023-09-09 21:25:43.8440,1694312743.84408,-0.04118586704134941,0.009819809347391129,0.07783086597919464,0.07250995188951492,0.3333283066749573,-0.92767333984375,
0,2023-09-09 21:25:40.2710,03:07,10,1,2023-09-09 21:25:44.2710,1694312744.2708411,0.0004913532175123692,-0.003808320267125964,-0.0032860743813216686,-0.0136260986328125,-0.000885009765625,-1.0015869140625,104.32655334472656,-24.569076538085938,-42.0897216796875,2023-09-09 21:25:43.9440,1694312743.94374,-0.21947744488716125,0.005206947680562735,-0.044949982315301895,0.07395953685045242,0.3641357719898224,-0.935211181640625,
0,2023-09-09 21:25:40.2710,03:07,10,1,2023-09-09 21:25:44.3700,1694312744.370476,-0.0028541097417473793,-0.008377505466341972,-0.0022386531345546246,-0.013641357421875,0.0007476806640625,-1.0068511962890625,104.37844848632812,-24.712005615234375,-42.167266845703125,2023-09-09 21:25:44.0440,1694312744.043783,-0.22703169286251068,-0.02697082981467247,0.00605457928031683,0.06820696592330933,0.3370971977710724,-0.92535400390625,
0,2023-09-09 21:25:40.2710,03:07,10,1,2023-09-09 21:25:44.4710,1694312744.470947,-0.0015161376213654876,0.008049936965107918,0.0016519587952643633,-0.0169677734375,-0.0018157958984375,-0.9976806640625,104.33958435058594,-24.747406005859375,-42.09489440917969,2023-09-09 21:25:44.1440,1694312744.143598,-0.47348424792289734,0.00835333950817585,0.025678548961877823,0.06367510557174683,0.4142914116382599,-0.9105071425437927,
0,2023-09-09 21:25:40.2710,03:07,10,1,2023-09-09 21:25:44.5710,1694312744.5710192,-0.0030594393610954285,-0.005553489550948143,-0.0025923210196197033,-0.0242156982421875,0.0005645751953125,-1.008087158203125,104.43446350097656,-24.87994384765625,-41.79347229003906,2023-09-09 21:25:44.2430,1694312744.243324,-0.6673808693885803,0.025185581296682358,-0.00491285091266036,0.06132523715496063,0.4359588921070099,-0.9055785536766052,
0,2023-09-09 21:25:40.2710,03:07,10,1,2023-09-09 21:25:44.6710,1694312744.671098,-0.006499444600194693,-0.001592037733644247,-0.007925034500658512,-0.0247344970703125,0.00030517578125,-1.0087738037109375,104.3125,-24.742233276367188,-42.024505615234375,2023-09-09 21:25:44.3430,1694312744.343054,0.24545656144618988,-0.016378771513700485,0.03738463670015335,0.07188434153795242,0.5068512558937073,-0.87109375,
0,2023-09-09 21:25:40.2710,03:07,10,1,2023-09-09 21:25:44.7700,1694312744.770306,-0.00185036426410079,-0.00535481795668602,-0.006238188594579697,-0.0206756591796875,0.000213623046875,-1.0026702880859375,104.32606506347656,-24.621139526367188,-42.05436706542969,2023-09-09 21:25:44.4430,1694312744.442812,-0.00414102990180254,0.011642210185527802,0.007340719923377037,0.07223530113697052,0.4700012803077698,-0.8757933974266052,
0,2023-09-09 21:25:40.2710,03:07,10,1,2023-09-09 21:25:44.8710,1694312744.8710341,-0.0037004624027758837,-0.005516205448657274,-0.0051833102479577065,-0.016754150390625,0.0037994384765625,-0.9995574951171875,104.38796997070312,-24.599288940429688,-41.92218017578125,2023-09-09 21:25:44.5430,1694312744.5427608,-0.013149438425898552,0.0055960360914468765,0.002664341824129224,0.07235735654830933,0.4513702988624573,-0.8834075331687927,
0,2023-09-09 21:25:40.2710,03:07,10,1,2023-09-09 21:25:44.9710,1694312744.9710069,-0.00333267985843122,-0.0012684636749327183,-0.004730572924017906,-0.0149383544921875,0.00518798828125,-0.9987640380859375,104.1976318359375,-24.6180419921875,-42.15214538574219,2023-09-09 21:25:44.6430,1694312744.6426291,0.06345213204622269,-0.018729276955127716,0.001173903699964285,0.06950397789478302,0.4641113579273224,-0.8748321533203125,
0,2023-09-09 21:25:40.2710,03:07,10,1,2023-09-09 21:25:45.0710,1694312745.071413,-0.0014149374328553677,-0.0041792988777160645,-0.004930576309561729,-0.013763427734375,0.00531005859375,-0.9978485107421875,104.32948303222656,-24.621536254882812,-42.13490295410156,2023-09-09 21:25:44.7420,1694312744.742497,-0.012765544466674328,-0.0038589853793382645,-0.005020808894187212,0.06626910716295242,0.46745309233665466,-0.8795470595359802,
0,2023-09-09 21:25:40.2710,03:07,10,1,2023-09-09 21:25:45.1720,1694312745.172357,0.0014122743159532547,-0.004534564446657896,-0.0022865901701152325,-0.016571044921875,0.0018310546875,-1.0010986328125,104.23919677734375,-24.719894409179688,-42.17683410644531,2023-09-09 21:25:44.8420,1694312744.842269,-0.01925533451139927,-0.005726260133087635,0.0005864436971023679,0.06678788363933563,0.4550018906593323,-0.8798370361328125,
0,2023-09-09 21:25:40.2710,03:07,10,1,2023-09-09 21:25:45.2710,1694312745.271017,-0.0017441042000427842,-0.00631914846599102,-0.0018490327056497335,-0.018280029296875,0.0019073486328125,-1.0000457763671875,104.19709777832031,-24.83795166015625,-42.160430908203125,2023-09-09 21:25:44.9420,1694312744.942089,0.03831448405981064,-0.00882245134562254,0.0007162728579714894,0.07016009092330933,0.4678803086280823,-0.8759002089500427,
0,2023-09-09 21:25:40.2710,03:07,10,1,2023-09-09 21:25:45.3710,1694312745.371377,-0.0035537220537662506,-0.0046727824956178665,-0.005514874123036861,-0.016571044921875,0.0030364990234375,-0.9984588623046875,104.33987426757812,-24.855819702148438,-41.68125915527344,2023-09-09 21:25:45.0420,1694312745.042078,0.0007131134625524282,0.0013996930792927742,0.0024901709984987974,0.06639118492603302,0.4677429795265198,-0.8795928359031677,
0,2023-09-09 21:25:40.2710,03:07,10,1,2023-09-09 21:25:45.4710,1694312745.471107,-0.0002697782183531672,2.663161012605997e-06,0.00022903185163158923,-0.0167083740234375,0.00146484375,-1.00177001953125,104.21940612792969,-24.4556884765625,-41.99269104003906,2023-09-09 21:25:45.1420,1694312745.141944,-0.02977149188518524,-0.003527820110321045,-0.005704008974134922,0.06762712448835373,0.4667511284351349,-0.8813934326171875,
0,2023-09-09 21:25:40.2710,03:07,10,1,2023-09-09 21:25:45.5710,1694312745.570898,-0.005656021647155285,0.0004958806093782187,-0.005768939387053251,-0.0174102783203125,0.0027923583984375,-0.9996795654296875,104.32588195800781,-24.627960205078125,-42.23771667480469,2023-09-09 21:25:45.2420,1694312745.241653,-0.022657189518213272,-0.004387355409562588,-0.002104580868035555,0.06344622373580933,0.4554291367530823,-0.8791045546531677,
0,2023-09-09 21:25:40.2710,03:07,10,1,2023-09-09 21:25:45.6710,1694312745.6706629,-0.0036067189648747444,-0.003067162586376071,-0.005243497900664806,-0.0141448974609375,0.00262451171875,-1.0005340576171875,104.2725830078125,-24.543426513671875,-41.83030700683594,2023-09-09 21:25:45.3420,1694312745.342324,0.026021799072623253,0.0025320695713162422,0.008974235504865646,0.06741350144147873,0.4712067246437073,-0.876068115234375,
0,2023-09-09 21:25:40.2710,03:07,10,1,2023-09-09 21:25:45.7710,1694312745.770993,-0.0046448190696537495,-0.0036013927310705185,-0.004827778320759535,-0.01702880859375,0.0024566650390625,-1.0014495849609375,104.10121154785156,-24.6849365234375,-41.891204833984375,2023-09-09 21:25:45.4410,1694312745.441432,-0.047244492918252945,0.005369267426431179,-0.008018562570214272,0.06631486862897873,0.4561157822608948,-0.883056640625,
0,2023-09-09 21:25:40.2710,03:07,10,1,2023-09-09 21:25:45.8710,1694312745.871177,-0.0006796387024223804,-0.004162520635873079,-0.0018301242962479591,-0.016082763671875,0.002166748046875,-1.0016021728515625,104.30891418457031,-24.57501220703125,-41.850067138671875,2023-09-09 21:25:45.5410,1694312745.541045,-0.06172936037182808,0.015771707519888878,0.004170825704932213,0.06434648483991623,0.4487000107765198,-0.8793944716453552,
0,2023-09-09 21:25:40.2710,03:07,10,1,2023-09-09 21:25:45.9710,1694312745.971319,-0.0013254552613943815,-0.0051505533047020435,-0.0015134743880480528,-0.0160675048828125,0.0016937255859375,-1.0010833740234375,104.31524658203125,-24.640777587890625,-41.67576599121094,2023-09-09 21:25:45.6410,1694312745.641154,-0.028221864253282547,-0.006793255917727947,0.00026829575654119253,0.07122819125652313,0.4603424668312073,-0.8764953017234802,
0,2023-09-09 21:25:40.2710,03:07,10,1,2023-09-09 21:25:46.0710,1694312746.071439,-0.001431182725355029,-0.006691991351544857,-0.0014530207263305783,-0.0134735107421875,0.0012664794921875,-1.00262451171875,104.40481567382812,-24.719024658203125,-42.08522033691406,2023-09-09 21:25:45.7410,1694312745.74103,0.025598224252462387,-0.005581517703831196,0.003592453431338072,0.07189960032701492,0.4873810112476349,-0.87310791015625,
0,2023-09-09 21:25:40.2710,03:07,10,1,2023-09-09 21:25:46.1710,1694312746.171176,-0.005066397599875927,-0.01215440034866333,-0.0016998957144096494,-0.0121307373046875,0.00341796875,-0.9993133544921875,104.35890197753906,-24.835601806640625,-42.01422119140625,2023-09-09 21:25:45.8410,1694312745.8408918,0.004397130571305752,0.0017036926001310349,-0.004486811347305775,0.06820697337388992,0.4721679985523224,-0.8773650527000427,
0,2023-09-09 21:25:40.2710,03:07,10,1,2023-09-09 21:25:46.2710,1694312746.271175,-0.0027292075101286173,-0.007421963382512331,-0.0009065400226972997,-0.018310546875,0.003173828125,-1.00360107421875,104.27418518066406,-24.81024169921875,-42.24391174316406,2023-09-09 21:25:45.9400,1694312745.940483,-0.032775070518255234,0.0017411098815500736,-0.002719770884141326,0.06904619932174683,0.4654999375343323,-0.8773192763328552,
0,2023-09-09 21:25:40.2710,03:07,10,1,2023-09-09 21:25:46.3700,1694312746.370198,0.00024474450037814677,0.0021792647894471884,-0.0015361113473773003,-0.015777587890625,-0.00213623046875,-1.0048980712890625,104.31346130371094,-24.604782104492188,-42.02882385253906,2023-09-09 21:25:46.0400,1694312746.0403008,-0.07195782661437988,0.014108430594205856,-0.012800667434930801,0.06634540110826492,0.4669647812843323,-0.877044677734375,
0,2023-09-09 21:25:40.2710,03:07,10,1,2023-09-09 21:25:46.4710,1694312746.4710011,-0.0020061591640114784,0.003853327827528119,-0.0007494135061278939,-0.0186309814453125,0.0020751953125,-0.9994049072265625,104.27049255371094,-24.602706909179688,-42.01194763183594,2023-09-09 21:25:46.1400,1694312746.140156,-0.015812266618013382,0.0005428208969533443,-0.0042995912954211235,0.07238788902759552,0.5057221055030823,-0.8662108778953552,
0,2023-09-09 21:25:40.2710,03:07,10,1,2023-09-09 21:25:46.5700,1694312746.570432,-0.0005496764206327498,-0.0028367992490530014,-0.001606685109436512,-0.0179290771484375,-0.00042724609375,-1.0032196044921875,104.3006591796875,-24.776596069335938,-42.16111755371094,2023-09-09 21:25:46.2400,1694312746.239952,-0.011153599247336388,0.011495869606733322,0.009872553870081902,0.06634538620710373,0.4742127060890198,-0.8692779541015625,
0,2023-09-09 21:25:40.2710,03:07,10,1,2023-09-09 21:25:46.6710,1694312746.6711202,0.0001227717293659225,0.00022770027862861753,-0.002968359272927046,-0.0146484375,-0.001251220703125,-1.0084686279296875,104.26960754394531,-24.634979248046875,-42.08064270019531,2023-09-09 21:25:46.3400,1694312746.33975,0.010875536128878593,0.0009702583774924278,0.00901980884373188,0.07252521067857742,0.4760437309741974,-0.8690795302391052,
0,2023-09-09 21:25:40.2710,03:07,10,1,2023-09-09 21:25:46.7710,1694312746.7706451,-0.001074052881449461,-0.002829342382028699,-0.0033542513847351074,-0.020599365234375,-0.0014190673828125,-1.00384521484375,104.34869384765625,-24.391571044921875,-42.39881896972656,2023-09-09 21:25:46.4400,1694312746.4396172,0.0038025134708732367,0.0007741162553429604,0.016916049644351006,0.07800311595201492,0.4910431504249573,-0.8661345839500427,
0,2023-09-09 21:25:40.2710,03:07,10,1,2023-09-09 21:25:46.8700,1694312746.87042,-0.004459463059902191,-0.00626029260456562,-0.001725728390738368,-0.01287841796875,-0.0027313232421875,-1.009796142578125,104.19996643066406,-24.494537353515625,-42.27186584472656,2023-09-09 21:25:46.5400,1694312746.539545,0.024173233658075333,-0.0155919399112463,-0.012449396774172783,0.07675188779830933,0.4861145615577698,-0.8674315810203552,
0,2023-09-09 21:25:40.2710,03:07,10,1,2023-09-09 21:25:46.9710,1694312746.970971,-0.002296710154041648,-0.006179066374897957,-0.0031824775505810976,-0.02130126953125,0.0013580322265625,-0.99951171875,104.19631958007812,-24.584915161132812,-42.02632141113281,2023-09-09 21:25:46.6390,1694312746.639182,-0.04563600942492485,0.013236112892627716,-0.0028852864634245634,0.06634538620710373,0.4701843559741974,-0.8755034804344177,
0,2023-09-09 21:25:40.2710,03:07,10,1,2023-09-09 21:25:47.0710,1694312747.070809,-0.0009526127250865102,-0.005318598821759224,-0.0015912387752905488,-0.0185546875,0.001190185546875,-1.0033111572265625,104.15489196777344,-24.4483642578125,-42.22442626953125,2023-09-09 21:25:46.7390,1694312746.739327,0.016875438392162323,-0.0006860941648483276,-0.0034960159100592136,0.07098408043384552,0.4805908203125,-0.8693236708641052,
0,2023-09-09 21:25:40.2710,03:07,10,1,2023-09-09 21:25:47.1700,1694312747.170372,0.0002740392810665071,-0.0012532835826277733,-0.004869323689490557,-0.018463134765625,0.0019378662109375,-0.99957275390625,104.32560729980469,-24.534637451171875,-41.94773864746094,2023-09-09 21:25:46.8390,1694312746.83898,0.02350264973938465,0.006974088493734598,0.01428740844130516,0.07270831614732742,0.4844055771827698,-0.86798095703125,
0,2023-09-09 21:25:40.2710,03:07,10,1,2023-09-09 21:25:47.2710,1694312747.271074,-0.003756654914468527,-0.0024762072134763002,-0.0016964336391538382,-0.0197906494140625,0.00030517578125,-0.99969482421875,104.43730163574219,-24.811813354492188,-42.01446533203125,2023-09-09 21:25:46.9390,1694312746.939013,0.030107086524367332,0.0004324326291680336,-8.783547673374414e-05,0.07287614792585373,0.4789581298828125,-0.8707579970359802,
0,2023-09-09 21:25:40.2710,03:07,10,1,2023-09-09 21:25:47.3720,1694312747.372057,-0.003695402294397354,-0.007221427746117115,-0.0041609229519963264,-0.010894775390625,0.001983642578125,-1.0104217529296875,104.29769897460938,-24.438705444335938,-41.995819091796875,2023-09-09 21:25:47.0390,1694312747.0387058,-0.03612499311566353,0.010351775214076042,0.009460429660975933,0.07086198776960373,0.4791412949562073,-0.8696746230125427,
0,2023-09-09 21:25:40.2710,03:07,10,1,2023-09-09 21:25:47.4710,1694312747.470862,-0.0009544769418425858,-0.00011984224693151191,-0.003690076060593128,-0.018585205078125,0.0028839111328125,-1.000152587890625,104.28031921386719,-24.684860229492188,-42.0205078125,2023-09-09 21:25:47.1390,1694312747.138585,-0.02511262521147728,0.003212506417185068,0.0019673926290124655,0.07299822568893433,0.4782257676124573,-0.8710631728172302,
0,2023-09-09 21:25:40.2710,03:07,10,1,2023-09-09 21:25:47.5710,1694312747.570704,-0.0011768508702516556,-0.0030072415247559547,-0.0010849718237295747,-0.016998291015625,0.00091552734375,-1.00244140625,104.3289794921875,-24.71063232421875,-42.14703369140625,2023-09-09 21:25:47.2380,1694312747.2383552,-0.008565671741962433,3.0162744224071503e-05,0.004358678124845028,0.07485978305339813,0.4756928086280823,-0.8708343505859375,
0,2023-09-09 21:25:40.2710,03:07,10,1,2023-09-09 21:25:47.6700,1694312747.670362,-0.0013068130938336253,-0.0036647759843617678,-0.004560130648314953,-0.0176544189453125,0.0010833740234375,-1.0021820068359375,104.34786987304688,-24.5166015625,-42.0272216796875,2023-09-09 21:25:47.3380,1694312747.338126,0.011112957261502743,-0.005469798110425472,0.0031368196941912174,0.07633992284536362,0.4876861870288849,-0.8666533827781677,
0,2023-09-09 21:25:40.2710,03:07,10,1,2023-09-09 21:25:47.7700,1694312747.7702398,0.0013901700731366873,-0.004405933897942305,-0.004698348697274923,-0.0184326171875,0.00140380859375,-1.001220703125,104.32151794433594,-24.681182861328125,-41.75733947753906,2023-09-09 21:25:47.4380,1694312747.437998,0.010158280842006207,-0.00017476733773946762,0.002340368228033185,0.07276933640241623,0.4880523979663849,-0.869110107421875,
0,2023-09-09 21:25:40.2710,03:07,10,1,2023-09-09 21:25:47.8700,1694312747.8702579,-0.003178216516971588,-0.002323075430467725,-0.005615541245788336,-0.01654052734375,0.0014801025390625,-1.0019683837890625,104.24641418457031,-24.701446533203125,-41.871917724609375,2023-09-09 21:25:47.5380,1694312747.5379028,-0.02949538826942444,0.0036809565499424934,0.0011079905088990927,0.07301346957683563,0.4821625351905823,-0.8688048124313354,
0,2023-09-09 21:25:40.2710,03:07,10,1,2023-09-09 21:25:47.9700,1694312747.97042,-0.0023840616922825575,-0.006491188891232014,-0.003177151083946228,-0.0152740478515625,0.000518798828125,-1.00408935546875,104.25308227539062,-24.55206298828125,-42.081268310546875,2023-09-09 21:25:47.6380,1694312747.637683,-0.025693126022815704,0.004776980262249708,0.000744568882510066,0.07197588682174683,0.4753113389015198,-0.8705748915672302,
0,2023-09-09 21:25:40.2710,03:07,10,1,2023-09-09 21:25:48.0710,1694312748.0707622,-0.0007835020078346133,-0.003849865635856986,-0.004053064621984959,-0.0169219970703125,0.000457763671875,-1.0018768310546875,104.37916564941406,-24.680221557617188,-41.901031494140625,2023-09-09 21:25:47.7380,1694312747.737708,0.0541146881878376,-0.008420181460678577,-0.0035691193770617247,0.07597370445728302,0.4933777153491974,-0.8705291152000427,
0,2023-09-09 21:25:40.2710,03:07,10,1,2023-09-09 21:25:48.1700,1694312748.169718,-0.0023241406306624413,-0.0047060721553862095,-0.0019510318525135517,-0.0172576904296875,0.0012054443359375,-1.000762939453125,104.25480651855469,-24.77569580078125,-41.85392761230469,2023-09-09 21:25:47.8370,1694312747.837356,-0.04657650366425514,0.02071000635623932,0.009548546746373177,0.06837481260299683,0.4782409965991974,-0.8698272705078125,
0,2023-09-09 21:25:40.2710,03:07,10,1,2023-09-09 21:25:48.2710,1694312748.271306,0.0009701895760372281,-0.007867776788771152,-0.004332430195063353,-0.0167694091796875,0.0025177001953125,-1.0021820068359375,104.27252197265625,-24.737289428710938,-41.6190185546875,2023-09-09 21:25:47.9370,1694312747.9372768,-0.050439152866601944,0.0042167846113443375,-0.006552393082529306,0.07409685105085373,0.4712524712085724,-0.8690032362937927,
0,2023-09-09 21:25:40.2710,03:07,10,1,2023-09-09 21:25:48.3720,1694312748.372449,-0.003471696749329567,-0.005556951742619276,-0.004250138532370329,-0.015533447265625,0.0019989013671875,-1.002410888671875,104.3515625,-24.927047729492188,-41.9068603515625,2023-09-09 21:25:48.0370,1694312748.037174,0.021834511309862137,0.0014481628313660622,0.0042314124293625355,0.07865923643112183,0.4821472764015198,-0.8678741455078125,
0,2023-09-09 21:25:40.2710,03:07,10,1,2023-09-09 21:25:48.4700,1694312748.469942,4.0746363083599135e-05,-0.004188619554042816,-0.002284459536895156,-0.015533447265625,0.0019989013671875,-1.002410888671875,104.19126892089844,-24.57586669921875,-41.82142639160156,2023-09-09 21:25:48.1370,1694312748.13687,0.026756566017866135,0.0013525551185011864,0.009744156152009964,0.07823197543621063,0.4983367919921875,-0.8678588271141052,
0,2023-09-09 21:25:40.2710,03:07,10,1,2023-09-09 21:25:48.5720,1694312748.571549,-0.0022628880105912685,-0.0025454494170844555,-0.004280232358723879,-0.01751708984375,0.001983642578125,-1.000518798828125,104.22392272949219,-24.388595581054688,-41.812225341796875,2023-09-09 21:25:48.2370,1694312748.236782,-0.0058421907015144825,0.0007199211977422237,-0.001355200307443738,0.07411211729049683,0.4835357964038849,-0.8686065077781677,
0,2023-09-09 21:25:40.2710,03:07,10,1,2023-09-09 21:25:48.6700,1694312748.670391,0.00042637207661755383,-0.0036133769899606705,-0.004780640359967947,-0.01751708984375,0.001983642578125,-1.000518798828125,104.29692077636719,-24.517501831054688,-41.82460021972656,2023-09-09 21:25:48.3370,1694312748.336635,-0.0008827191777527332,-0.0026926537975668907,-0.0010387504007667303,0.07408159226179123,0.48327645659446716,-0.8698119521141052,
0,2023-09-09 21:25:40.2710,03:07,10,1,2023-09-09 21:25:48.7700,1694312748.770438,-0.0033036512322723866,-0.0054211304523050785,-0.0037321539130061865,-0.014007568359375,0.0030517578125,-1.002349853515625,104.40724182128906,-24.687454223632812,-41.58103942871094,2023-09-09 21:25:48.4360,1694312748.4363952,-0.01779918372631073,0.004333165008574724,0.00038687302730977535,0.07647722214460373,0.4789887070655823,-0.8683928847312927,
0,2023-09-09 21:25:40.2710,03:07,10,1,2023-09-09 21:25:48.8840,1694312748.8840141,-0.0006974819116294384,-0.0020567593164741993,-0.003955593332648277,-0.016754150390625,0.0022735595703125,-1.0006256103515625,104.348388671875,-24.591964721679688,-41.270782470703125,2023-09-09 21:25:48.5360,1694312748.5363312,0.022200895473361015,-0.0013885032385587692,0.004849964752793312,0.07662981748580933,0.491424560546875,-0.8656005263328552,
0,2023-09-09 21:25:40.2710,03:07,10,1,2023-09-09 21:25:48.9830,1694312748.98307,-4.1012681322172284e-05,-0.004888498689979315,-0.004174771253019571,-0.0170135498046875,0.002685546875,-1.0008392333984375,104.33291625976562,-24.67608642578125,-41.49436950683594,2023-09-09 21:25:48.6360,1694312748.6361341,-0.02476448193192482,0.009970411658287048,0.007345746271312237,0.07576006650924683,0.4880981743335724,-0.866668701171875,
0,2023-09-09 21:25:40.2710,03:07,10,1,2023-09-09 21:25:49.0710,1694312749.071423,0.00013768543431069702,-0.0030056436080485582,-0.0025534387677907944,-0.0170135498046875,0.002685546875,-1.0008392333984375,104.24165344238281,-24.688705444335938,-41.674713134765625,2023-09-09 21:25:48.7360,1694312748.736175,-0.03419773280620575,0.0037933425046503544,-0.007004796992987394,0.07580585032701492,0.4739075303077698,-0.8678741455078125,
0,2023-09-09 21:25:40.2710,03:07,10,1,2023-09-09 21:25:49.1710,1694312749.17116,0.002513757674023509,-0.004716724622994661,-0.0005012069013901055,-0.01641845703125,0.0029296875,-1.0018157958984375,104.33750915527344,-24.705352783203125,-41.56632995605469,2023-09-09 21:25:48.8360,1694312748.835767,-0.003659064881503582,0.0026461859233677387,0.003985436167567968,0.07693499326705933,0.4798126816749573,-0.86773681640625,
0,2023-09-09 21:25:40.2710,03:07,10,1,2023-09-09 21:25:49.2710,1694312749.270607,-0.0007025419035926461,-0.005045624915510416,-0.003093261504545808,-0.016082763671875,0.0025634765625,-1.000701904296875,104.29167175292969,-24.591140747070312,-41.67875671386719,2023-09-09 21:25:48.9360,1694312748.935658,0.021671991795301437,-0.0021365853026509285,0.003972719423472881,0.07795733213424683,0.4938965141773224,-0.8659972548484802,
0,2023-09-09 21:25:40.2710,03:07,10,1,2023-09-09 21:25:49.3710,1694312749.370553,-0.0012253203894942999,-0.00392896169796586,-0.005176652688533068,-0.01629638671875,0.0022125244140625,-1.0019378662109375,104.29167175292969,-24.591140747070312,-41.67875671386719,2023-09-09 21:25:49.0350,1694312749.0354571,0.024116039276123047,-0.0053018853068351746,0.002189700026065111,0.07786577194929123,0.4940949082374573,-0.8641356825828552,
0,2023-09-09 21:25:40.2710,03:07,10,1,2023-09-09 21:25:49.4830,1694312749.483088,-0.0022245384752750397,-0.00561021501198411,-0.0023843280505388975,-0.0157318115234375,0.0029754638671875,-1.0023956298828125,104.38479614257812,-24.581466674804688,-41.82452392578125,2023-09-09 21:25:49.1350,1694312749.135401,0.021875258535146713,-0.0021558934822678566,0.0006964656058698893,0.07679767906665802,0.4922943711280823,-0.8674163222312927,
0,2023-09-09 21:25:40.2710,03:07,10,1,2023-09-09 21:25:49.5830,1694312749.582852,-0.0019286612514406443,-0.003022954100742936,-0.0010090717114508152,-0.0152130126953125,0.002593994140625,-1.001678466796875,104.29402160644531,-24.831039428710938,-42.040679931640625,2023-09-09 21:25:49.2350,1694312749.2354689,-0.0074240416288375854,0.003574164118617773,-0.002723832381889224,0.07713335752487183,0.4759826958179474,-0.8686980605125427,
0,2023-09-09 21:25:40.2710,03:07,10,1,2023-09-09 21:25:49.6690,1694312749.669384,0.0014998923288658261,-0.004999019671231508,-0.0014751249691471457,-0.0152130126953125,0.002593994140625,-1.001678466796875,104.29402160644531,-24.831039428710938,-42.040679931640625,2023-09-09 21:25:49.3350,1694312749.3352141,-0.023506738245487213,0.0011051478795707226,6.070255767554045e-05,0.07893390953540802,0.47854623198509216,-0.8720855116844177,
0,2023-09-09 21:25:40.2710,03:07,10,1,2023-09-09 21:25:49.7710,1694312749.771027,-0.0006570018595084548,-0.006898918654769659,-0.002189118415117264,-0.016693115234375,0.00152587890625,-1.0018463134765625,104.27873229980469,-24.317977905273438,-42.066436767578125,2023-09-09 21:25:49.4350,1694312749.4350228,-0.002870103344321251,-0.006651975214481354,-0.005416520871222019,0.07743852585554123,0.4772492051124573,-0.8689269423484802,
0,2023-09-09 21:25:40.2710,03:07,10,1,2023-09-09 21:25:49.8710,1694312749.8710551,-0.0018471685471013188,-0.008372179232537746,-0.002915362361818552,-0.0168609619140625,0.0020599365234375,-1.0012054443359375,104.24935913085938,-24.699295043945312,-42.238037109375,2023-09-09 21:25:49.5350,1694312749.5346808,0.008390141651034355,0.002527142409235239,0.006457515060901642,0.07556168735027313,0.48773193359375,-0.8668059706687927,
0,2023-09-09 21:25:40.2710,03:07,10,1,2023-09-09 21:25:49.9720,1694312749.971548,-0.0006870955694466829,-0.0027659591287374496,-0.0008713863207958639,-0.01617431640625,0.0015411376953125,-1.00054931640625,104.138427734375,-24.6351318359375,-42.2152099609375,2023-09-09 21:25:49.6350,1694312749.634609,0.017115188762545586,-0.004349405877292156,-0.0005283555947244167,0.07476823776960373,0.4859161972999573,-0.8688048720359802,
0,2023-09-09 21:25:40.2710,03:07,10,1,2023-09-09 21:25:50.0710,1694312750.071378,0.0004852279380429536,-0.0019526296528056264,-0.002049568807706237,-0.01495361328125,0.0023193359375,-1.0045928955078125,104.20419311523438,-24.64453125,-42.01451110839844,2023-09-09 21:25:49.7340,1694312749.734486,0.009164655581116676,-0.001718335784971714,-0.0001713921083137393,0.08010883629322052,0.4891052544116974,-0.8708648085594177,
0,2023-09-09 21:25:40.2710,03:07,10,1,2023-09-09 21:25:50.1710,1694312750.170545,-0.0012921657180413604,-0.004132693167775869,-0.00321922916918993,-0.01776123046875,0.001922607421875,-1.0006866455078125,104.31941223144531,-24.825927734375,-41.77021789550781,2023-09-09 21:25:49.8340,1694312749.834324,-0.007470913231372833,0.001983191817998886,0.00020005239639431238,0.07519550621509552,0.47834786772727966,-0.8683318495750427,
0,2023-09-09 21:25:40.2710,03:07,10,1,2023-09-09 21:25:50.2710,1694312750.271075,-0.0008604673203080893,-0.005944175645709038,-0.004283694550395012,-0.0171356201171875,0.0027313232421875,-1.00201416015625,104.36863708496094,-24.687667846679688,-41.802215576171875,2023-09-09 21:25:49.9340,1694312749.9340382,-0.03006763570010662,-0.0021261991932988167,-0.003270678920671344,0.07608050107955933,0.4723511338233948,-0.8681182265281677,
0,2023-09-09 21:25:40.2710,03:07,10,1,2023-09-09 21:25:50.3690,1694312750.3694382,-0.0017944378778338432,-0.005316468421369791,-0.002749181119725108,-0.0164031982421875,0.0023345947265625,-1.001373291015625,104.22030639648438,-24.487274169921875,-42.071197509765625,2023-09-09 21:25:50.0340,1694312750.033934,-0.00408550351858139,-0.0017822515219449997,-0.003769921837374568,0.07563798874616623,0.4761658310890198,-0.8706817030906677,
0,2023-09-09 21:25:40.2710,03:07,10,1,2023-09-09 21:25:50.4720,1694312750.471833,-0.0022391858510673046,-0.004334028344601393,-0.0012482235906645656,-0.0155792236328125,0.0008697509765625,-1.0025482177734375,104.36376953125,-24.349899291992188,-41.56123352050781,2023-09-09 21:25:50.1340,1694312750.133682,0.027161099016666412,-0.007122421637177467,-0.000304084038361907,0.08212300390005112,0.4910431504249573,-0.8720397353172302,
0,2023-09-09 21:25:40.2710,03:07,10,1,2023-09-09 21:25:50.5710,1694312750.5709481,-0.0027507790364325047,-0.0029531794134527445,-0.00370099488645792,-0.0168914794921875,0.0017852783203125,-1.0025177001953125,104.32817077636719,-24.516891479492188,-41.47471618652344,2023-09-09 21:25:50.2330,1694312750.233426,0.012525564059615135,-0.002221672795712948,0.005486227106302977,0.07429521530866623,0.4943085014820099,-0.8664092421531677,
0,2023-09-09 21:25:40.2710,03:07,10,1,2023-09-09 21:25:50.6710,1694312750.6706982,0.00024208133982028812,-0.004833637271076441,-0.003133208956569433,-0.0167388916015625,0.00177001953125,-1.0017852783203125,104.25993347167969,-24.4583740234375,-42.18074035644531,2023-09-09 21:25:50.3330,1694312750.333331,-0.02167501673102379,0.005517206154763699,-0.00034356536343693733,0.07394425570964813,0.4783630669116974,-0.8709563612937927,
0,2023-09-09 21:25:40.2710,03:07,10,1,2023-09-09 21:25:50.7880,1694312750.787519,-0.005437908694148064,-0.004914064891636372,-0.003111371072009206,-0.0173492431640625,0.0017242431640625,-1.00128173828125,104.2066650390625,-24.404769897460938,-42.2860107421875,2023-09-09 21:25:50.4330,1694312750.433305,-0.002884151181206107,0.0009898319840431213,0.0013294988311827183,0.07522600889205933,0.4776459038257599,-0.8689269423484802,
0,2023-09-09 21:25:40.2710,03:07,10,1,2023-09-09 21:25:50.8700,1694312750.870434,-0.0024019049014896154,-0.0028160265646874905,-0.0035723643377423286,-0.0173492431640625,0.0017242431640625,-1.00128173828125,104.2066650390625,-24.404769897460938,-42.2860107421875,2023-09-09 21:25:50.5330,1694312750.5330539,0.014315474778413773,-0.001531914807856083,0.004105111584067345,0.07739274203777313,0.4858856797218323,-0.8675689697265625,
0,2023-09-09 21:25:40.2710,03:07,10,1,2023-09-09 21:25:50.9710,1694312750.970732,-0.0031848743092268705,-0.005175853613764048,-0.00281948852352798,-0.0160064697265625,0.001373291015625,-1.002166748046875,104.1923828125,-24.331039428710938,-42.1971435546875,2023-09-09 21:25:50.6330,1694312750.632932,0.0019064759835600853,-0.0017383098602294922,0.0026192013174295425,0.07591266930103302,0.4839630722999573,-0.867218017578125,
0,2023-09-09 21:25:40.2710,03:07,10,1,2023-09-09 21:25:51.0710,1694312751.0708652,-0.0012090750969946384,-0.00412390474230051,-0.0044197821989655495,-0.0151824951171875,0.0018157958984375,-1.00201416015625,104.25765991210938,-24.648681640625,-42.19163513183594,2023-09-09 21:25:50.7330,1694312750.73287,0.006775333546102047,5.972292274236679e-05,0.002806388307362795,0.07666034251451492,0.4947815537452698,-0.8684996962547302,
0,2023-09-09 21:25:40.2710,03:07,10,1,2023-09-09 21:25:51.1720,1694312751.171808,-0.004195011220872402,-0.0046818372793495655,-0.003357979701831937,-0.0171051025390625,0.0014495849609375,-1.0009613037109375,104.24285888671875,-24.70098876953125,-42.63029479980469,2023-09-09 21:25:50.8330,1694312750.832927,-0.019125305116176605,0.005336111411452293,0.00619888911023736,0.07330341637134552,0.4756165146827698,-0.8701934814453125,
0,2023-09-09 21:25:40.2710,03:07,10,1,2023-09-09 21:25:51.2720,1694312751.271737,-0.002585130510851741,-0.0028535770252346992,-0.0025832662358880043,-0.0157623291015625,0.0013275146484375,-1.0007476806640625,104.07276916503906,-24.568191528320312,-42.430450439453125,2023-09-09 21:25:50.9320,1694312750.932454,0.012349795550107956,-0.0031188922002911568,-0.00858591590076685,0.07745379954576492,0.4811401665210724,-0.8680419325828552,
0,2023-09-09 21:25:40.2710,03:07,10,1,2023-09-09 21:25:51.3710,1694312751.3706632,-0.0029728866647928953,-0.0049185920506715775,-0.0017411747248843312,-0.01544189453125,0.0028228759765625,-0.9999847412109375,104.16658020019531,-24.872726440429688,-42.22117614746094,2023-09-09 21:25:51.0320,1694312751.032329,-0.018528956919908524,0.007327224127948284,0.007143745664507151,0.07533281296491623,0.4820709526538849,-0.8686980605125427,
0,2023-09-09 21:25:40.2710,03:07,10,1,2023-09-09 21:25:51.4710,1694312751.470927,-0.0011443602852523327,-0.004342017695307732,-0.0018777948571369052,-0.0151824951171875,0.00250244140625,-0.999237060546875,104.14259338378906,-24.6666259765625,-42.2198486328125,2023-09-09 21:25:51.1320,1694312751.132275,0.004617307335138321,0.002671352121978998,0.0009916102280840278,0.07643144577741623,0.48933419585227966,-0.8678435683250427,
0,2023-09-09 21:25:40.2710,03:07,10,1,2023-09-09 21:25:51.5700,1694312751.5703468,-0.007662713527679443,-0.016957677900791168,-0.00227939966134727,-0.014495849609375,0.002899169921875,-1.000213623046875,104.27752685546875,-24.879241943359375,-41.91871643066406,2023-09-09 21:25:51.2320,1694312751.231842,-0.015274042263627052,0.006149573717266321,0.0024516552221029997,0.07853716611862183,0.4812774956226349,-0.8689269423484802,
0,2023-09-09 21:25:40.2710,03:07,10,1,2023-09-09 21:25:51.6710,1694312751.6706262,0.0015875103417783976,-0.009102950803935528,-0.000957939017098397,-0.013519287109375,0.0030517578125,-1.001556396484375,104.21005249023438,-24.719467163085938,-42.394744873046875,2023-09-09 21:25:51.3320,1694312751.331873,0.012279688380658627,-0.00445966050028801,-0.003522281302139163,0.08129901438951492,0.4837494492530823,-0.868194580078125,
0,2023-09-09 21:25:40.2710,03:07,10,1,2023-09-09 21:25:51.7720,1694312751.771675,0.0012207929976284504,-0.005517270881682634,-0.00373135507106781,-0.0170135498046875,0.001861572265625,-0.995941162109375,104.30284118652344,-24.567337036132812,-42.12193298339844,2023-09-09 21:25:51.4320,1694312751.4316711,-0.013612229377031326,0.004334363155066967,0.0023187631741166115,0.07498186081647873,0.48193359375,-0.8682250380516052,
0,2023-09-09 21:25:40.2710,03:07,10,1,2023-09-09 21:25:51.8700,1694312751.870352,-0.0017606157343834639,-0.004133225884288549,-0.0018394453218206763,-0.015380859375,0.0027008056640625,-1.00225830078125,104.15850830078125,-24.5439453125,-42.25288391113281,2023-09-09 21:25:51.5320,1694312751.531606,0.0050581274554133415,-0.0018612146377563477,-0.0028957061003893614,0.07847612351179123,0.4907532334327698,-0.8643950819969177,
0,2023-09-09 21:25:40.2710,03:07,10,1,2023-09-09 21:25:51.9700,1694312751.970427,-0.001315335277467966,-0.006759102921932936,-0.0035212314687669277,-0.0166778564453125,0.0021209716796875,-1.0021514892578125,104.30413818359375,-24.781326293945312,-42.15446472167969,2023-09-09 21:25:51.6310,1694312751.6313648,-0.012437509372830391,-0.0011163288727402687,0.0015038360143080354,0.08209244906902313,0.4954681694507599,-0.8703460097312927,
0,2023-09-09 21:25:40.2710,03:07,10,1,2023-09-09 21:25:52.0710,1694312752.0705628,-0.0024405207950621843,-0.006827812176197767,-0.003543868428096175,-0.0179595947265625,0.001556396484375,-1.003173828125,104.22694396972656,-24.894058227539062,-41.95964050292969,2023-09-09 21:25:51.7310,1694312751.731281,-0.0337362065911293,0.008426710031926632,0.00022302207071334124,0.07528705149888992,0.47093209624290466,-0.8717498779296875,
0,2023-09-09 21:25:40.2710,03:07,10,1,2023-09-09 21:25:52.1710,1694312752.1707358,-0.0017507621087133884,-0.00387330143712461,-0.00290417717769742,-0.0150604248046875,0.0018310546875,-1.00201416015625,104.22482299804688,-24.826629638671875,-42.1109619140625,2023-09-09 21:25:51.8310,1694312751.8311381,-0.007352003362029791,0.0058450414799153805,0.006533648353070021,0.07685871422290802,0.4842987656593323,-0.8664702773094177,
0,2023-09-09 21:25:40.2710,03:07,10,1,2023-09-09 21:25:52.2700,1694312752.269742,-0.0032746228389441967,-0.006603041663765907,-0.002998719457536936,-0.016693115234375,0.0015106201171875,-1.00390625,104.34272766113281,-25.066390991210938,-41.97990417480469,2023-09-09 21:25:51.9310,1694312751.930887,0.016351062804460526,0.0005235131829977036,0.00538615882396698,0.07952898740768433,0.4910431504249573,-0.8648833632469177,
0,2023-09-09 21:25:40.2710,03:07,10,1,2023-09-09 21:25:52.3710,1694312752.370812,0.0004857605672441423,-0.0015140071045607328,-0.0035606464371085167,-0.0161590576171875,0.0011444091796875,-1.00506591796875,104.35807800292969,-24.879241943359375,-42.03466796875,2023-09-09 21:25:52.0310,1694312752.031172,0.01004795916378498,0.002467487473040819,0.003006191924214363,0.08265703916549683,0.4990997612476349,-0.8644256591796875,
0,2023-09-09 21:25:40.2710,03:07,10,1,2023-09-09 21:25:52.4700,1694312752.470357,-0.003942809998989105,-0.0032583775464445353,-0.004281297791749239,-0.0166168212890625,0.001129150390625,-1.0007781982421875,104.21578979492188,-24.79644775390625,-42.29640197753906,2023-09-09 21:25:52.1310,1694312752.130604,-0.006882421672344208,-0.0009477501735091209,-0.005554606206715107,0.07870502024888992,0.4880982041358948,-0.8662872314453125,
0,2023-09-09 21:25:40.2710,03:07,10,1,2023-09-09 21:25:52.5700,1694312752.5704188,-0.000360059377271682,-5.592638444795739e-06,-0.0033606430515646935,-0.015777587890625,0.001708984375,-1.001922607421875,104.18968200683594,-24.89910888671875,-42.01069641113281,2023-09-09 21:25:52.2300,1694312752.230452,-0.017391387373209,0.0047894977033138275,0.0004574134945869446,0.07901020348072052,0.4794922173023224,-0.8672332167625427,
0,2023-09-09 21:25:40.2710,03:07,10,1,2023-09-09 21:25:52.6870,1694312752.687438,0.0009100021561607718,-0.0023401195649057627,-0.0021342572290450335,-0.0169525146484375,0.0020294189453125,-1.0029449462890625,104.11770629882812,-24.91253662109375,-42.450653076171875,2023-09-09 21:25:52.3310,1694312752.3305612,0.011073809117078781,0.001522065605968237,0.005980410147458315,0.07954423129558563,0.4837646782398224,-0.8639983534812927,
0,2023-09-09 21:25:40.2710,03:07,10,1,2023-09-09 21:25:52.7710,1694312752.771391,-0.0012069445801898837,-0.006554571911692619,-0.003403253620490432,-0.01837158203125,0.00177001953125,-1.000640869140625,104.36528015136719,-25.081008911132812,-42.077972412109375,2023-09-09 21:25:52.4300,1694312752.430006,0.045160405337810516,-0.008061586879193783,-0.005784104112535715,0.08027667552232742,0.4938507676124573,-0.8668212294578552,
0,2023-09-09 21:25:40.2710,03:07,10,1,2023-09-09 21:25:52.8700,1694312752.870491,-0.003147589974105358,-0.0029403960797935724,-0.0030714236199855804,-0.016510009765625,0.001373291015625,-1.001556396484375,104.24935913085938,-24.923233032226562,-42.14599609375,2023-09-09 21:25:52.5300,1694312752.529908,-0.023050405085086823,0.010378806851804256,0.011809569783508778,0.07601946592330933,0.4845276176929474,-0.8656768202781677,
0,2023-09-09 21:25:40.2710,03:07,10,1,2023-09-09 21:25:52.9710,1694312752.970592,-0.0016644756542518735,-0.004744421225041151,-0.003117762738838792,-0.01556396484375,0.002655029296875,-1.0013275146484375,104.30332946777344,-24.738693237304688,-42.244384765625,2023-09-09 21:25:52.6300,1694312752.629673,0.035450853407382965,-0.0015705311670899391,0.022201690822839737,0.08943195641040802,0.4820556938648224,-0.86859130859375,
0,2023-09-09 21:25:40.2710,03:07,10,1,2023-09-09 21:25:53.0700,1694312753.069778,-0.0028666264843195677,-0.00430207047611475,-0.003560912562534213,-0.016632080078125,0.00146484375,-1.0015411376953125,104.34385681152344,-24.844802856445312,-41.97538757324219,2023-09-09 21:25:52.7300,1694312752.729533,0.06942273676395416,-0.02341897040605545,0.05298180505633354,0.09411638975143433,0.4716644585132599,-0.8664550185203552,
0,2023-09-09 21:25:40.2710,03:07,10,1,2023-09-09 21:25:53.1710,1694312753.1706219,-0.0017449031583964825,-0.004463191609829664,-0.0030245520174503326,-0.0152587890625,0.0010528564453125,-1.0024566650390625,104.26498413085938,-24.456146240234375,-42.13470458984375,2023-09-09 21:25:52.8290,1694312752.829324,0.1841946542263031,-0.04199518635869026,0.05443812534213066,0.07395952194929123,0.4821320176124573,-0.8691253066062927,
0,2023-09-09 21:25:40.2710,03:07,10,1,2023-09-09 21:25:53.2710,1694312753.270644,-0.0018817896489053965,-0.001955292886123061,-0.0021758025977760553,-0.0168304443359375,0.0009613037109375,-1.002349853515625,104.24325561523438,-24.63482666015625,-42.28569030761719,2023-09-09 21:25:52.9290,1694312752.929265,0.00017828401178121567,-0.0005144542083144188,0.08076397329568863,0.07035844027996063,0.4899902641773224,-0.8762969970703125,
0,2023-09-09 21:25:40.2710,03:07,10,1,2023-09-09 21:25:53.3710,1694312753.371142,-0.001413339632563293,-0.008843292482197285,-0.0035358788445591927,-0.017730712890625,0.0006256103515625,-1.0025482177734375,104.17312622070312,-24.6070556640625,-42.22724914550781,2023-09-09 21:25:53.0310,1694312753.031351,0.12916409969329834,-0.024899953976273537,0.12757082283496857,0.07737751305103302,0.4642792344093323,-0.881011962890625,
0,2023-09-09 21:25:40.2710,03:07,10,1,2023-09-09 21:25:53.4710,1694312753.470841,-0.00358754419721663,-0.006943127140402794,-0.0013619405217468739,-0.016845703125,0.001373291015625,-1.002716064453125,104.21797180175781,-24.451995849609375,-41.81944274902344,2023-09-09 21:25:53.1290,1694312753.128974,0.15855880081653595,0.029095500707626343,0.1941307634115219,0.07980365306138992,0.4636078178882599,-0.9061431288719177,
0,2023-09-09 21:25:40.2710,03:07,10,1,2023-09-09 21:25:53.5720,1694312753.572473,-0.0006825681775808334,-0.00487145408987999,-0.001847967505455017,-0.0170135498046875,0.0015411376953125,-1.001800537109375,104.25874328613281,-24.598251342773438,-41.838104248046875,2023-09-09 21:25:53.2290,1694312753.228591,0.04784247651696205,-0.029335450381040573,0.23866532742977142,0.09678669273853302,0.4167480766773224,-0.8752288818359375,
0,2023-09-09 21:25:40.2710,03:07,10,1,2023-09-09 21:25:53.6710,1694312753.671427,-0.0027116306591778994,-0.0046698530204594135,-0.0026852653827518225,-0.0123443603515625,0.0002899169921875,-1.0041351318359375,104.31648254394531,-24.916488647460938,-41.355072021484375,2023-09-09 21:25:53.3290,1694312753.328658,-0.2933507263660431,-0.08789343386888504,0.12307610362768173,0.13366717100143433,0.3539581596851349,-0.915863037109375,
0,2023-09-09 21:25:40.2710,03:07,10,1,2023-09-09 21:25:53.7730,1694312753.7726002,0.0005147890187799931,-0.007537278346717358,-0.002606435678899288,-0.0161285400390625,0.0038299560546875,-0.999237060546875,104.31964111328125,-24.58526611328125,-42.32752990722656,2023-09-09 21:25:53.4280,1694312753.428427,-0.0012890510261058807,-0.18190647661685944,-0.027870263904333115,0.10673540085554123,0.3770294487476349,-0.8538665175437927,
0,2023-09-09 21:25:40.2710,03:07,10,1,2023-09-09 21:25:53.8710,1694312753.871263,-0.0046610645949840546,-0.0005970807396806777,-0.00395799009129405,-0.0162353515625,0.002471923828125,-1.0041656494140625,104.368408203125,-24.825790405273438,-42.09989929199219,2023-09-09 21:25:53.5280,1694312753.528254,0.14219453930854797,-0.13925501704216003,0.034038010984659195,0.10633870214223862,0.5465698540210724,-0.93658447265625,
0,2023-09-09 21:25:40.2710,03:07,10,1,2023-09-09 21:25:53.9700,1694312753.9704409,-0.003388339886441827,-0.006999852601438761,-0.004201935604214668,-0.0175933837890625,0.0031280517578125,-0.998016357421875,104.29255676269531,-24.8311767578125,-41.765960693359375,2023-09-09 21:25:53.6280,1694312753.6280909,0.403946191072464,-0.15192994475364685,-0.07870674133300781,0.05813615769147873,0.5469666123390198,-0.8920745253562927,
0,2023-09-09 21:25:40.2710,03:07,10,1,2023-09-09 21:25:54.0730,1694312754.0729918,-0.00361763802357018,-0.006701844744384289,-0.0037878139410167933,-0.013885498046875,0.00390625,-1.0030059814453125,104.37184143066406,-24.5487060546875,-42.23524475097656,2023-09-09 21:25:53.7280,1694312753.727915,0.24007922410964966,-0.2205265760421753,-0.2252493053674698,0.060424983501434326,0.532135009765625,-0.8444976210594177,
0,2023-09-09 21:25:40.2710,03:07,10,1,2023-09-09 21:25:54.1730,1694312754.172539,-0.00041784998029470444,-0.003403786104172468,-0.0022471752017736435,-0.0219573974609375,0.002197265625,-0.9974212646484375,104.32437133789062,-24.668716430664062,-42.14961242675781,2023-09-09 21:25:53.8280,1694312753.8278599,0.21134185791015625,-0.25628459453582764,-0.23330377042293549,0.0664216848090291,0.4255981743335724,-0.9525146484375,
0,2023-09-09 21:25:40.2710,03:07,10,1,2023-09-09 21:25:54.2710,1694312754.270545,-0.0011398328933864832,-0.004309527110308409,-0.0042706448584795,-0.0159759521484375,0.00201416015625,-1.0023345947265625,104.25871276855469,-24.60467529296875,-42.30647277832031,2023-09-09 21:25:53.9280,1694312753.9275432,1.2044036388397217,-0.46634820103645325,-0.06843317300081253,0.317138833925128,0.4395447373390198,-1.1252899169921875,
0,2023-09-09 21:25:40.2710,03:07,10,1,2023-09-09 21:25:54.3720,1694312754.3723521,-0.0018160095205530524,-0.0049042110331356525,-0.004239219706505537,-0.0099029541015625,-0.00048828125,-1.0055999755859375,104.33364868164062,-24.52520751953125,-42.1763916015625,2023-09-09 21:25:54.0310,1694312754.031262,-0.46571359038352966,-0.4834951162338257,0.7821853756904602,0.3074953109025955,0.3407745361328125,-0.8149566054344177,
0,2023-09-09 21:25:40.2710,03:07,10,1,2023-09-09 21:25:54.4720,1694312754.4724932,0.0024810009635984898,-0.0018996327416971326,-0.003008040366694331,-0.02093505859375,0.0021514892578125,-1.002838134765625,104.39088439941406,-23.901931762695312,-43.0560302734375,2023-09-09 21:25:54.1270,1694312754.127384,0.0039954595267772675,-0.8899374008178711,1.6316325664520264,0.4093629717826843,0.7210235893726349,-0.834442138671875,
0,2023-09-09 21:25:40.2710,03:07,10,1,2023-09-09 21:25:54.5710,1694312754.571058,0.008296012878417969,0.0014791196445003152,-0.004411792848259211,-0.019439697265625,-0.0093536376953125,-1.0099639892578125,104.70681762695312,-24.435714721679688,-44.65771484375,2023-09-09 21:25:54.2270,1694312754.227144,-0.815060019493103,-1.5681082010269165,0.842764139175415,0.21530167013406754,0.5527649223804474,-0.7398223876953125,
0,2023-09-09 21:25:40.2710,03:07,10,1,2023-09-09 21:25:54.6710,1694312754.670651,-0.014257765375077724,-0.03267752006649971,0.009896306321024895,-0.0120086669921875,-0.00469970703125,-1.0141143798828125,105.20663452148438,-26.28759765625,-42.32344055175781,2023-09-09 21:25:54.3270,1694312754.326947,2.2259674072265625,-1.8228271007537842,-0.22923997044563293,-0.22718796133995056,0.74249267578125,-0.7835999131202698,
0,2023-09-09 21:25:40.2710,03:07,10,1,2023-09-09 21:25:54.7700,1694312754.770438,-0.04265771433711052,-0.07065073400735855,0.012714463286101818,-0.0312347412109375,0.0267333984375,-1.0107574462890625,104.45451354980469,-25.626602172851562,-42.204803466796875,2023-09-09 21:25:54.4270,1694312754.426837,0.24438682198524475,-1.4735502004623413,-1.0088560581207275,-0.641281008720398,0.3020629584789276,-0.609817624092102,
0,2023-09-09 21:25:40.2710,03:07,10,1,2023-09-09 21:25:54.8730,1694312754.872758,-0.030222617089748383,-0.02466779574751854,0.012308064848184586,-0.0220184326171875,0.02032470703125,-1.0057373046875,103.91493225097656,-24.82269287109375,-42.114288330078125,2023-09-09 21:25:54.5270,1694312754.526736,1.8335541486740112,-0.5486010313034058,-0.6035588979721069,-0.860641360282898,0.4029693156480789,-0.790298581123352,
0,2023-09-09 21:25:40.2710,03:07,10,1,2023-09-09 21:25:54.9710,1694312754.97065,-0.029211148619651794,-0.014960307627916336,0.013644705526530743,-0.0303955078125,0.005218505859375,-1.0050506591796875,103.65817260742188,-24.507247924804688,-41.873504638671875,2023-09-09 21:25:54.6270,1694312754.626515,-0.7022930979728699,-0.19087468087673187,-0.2191978096961975,-0.587081789970398,-0.10206606984138489,-0.5739747285842896,
0,2023-09-09 21:25:40.2710,03:07,10,1,2023-09-09 21:25:55.0720,1694312755.072195,-0.04879097640514374,-0.046547260135412216,0.017531588673591614,-0.02740478515625,0.002532958984375,-1.0063323974609375,103.69818115234375,-24.176483154296875,-41.93110656738281,2023-09-09 21:25:54.7260,1694312754.7263489,-0.32388415932655334,0.10011161863803864,-0.057320162653923035,-0.5797728300094604,-0.42713932134211063,-0.7365875840187073,
0,2023-09-09 21:25:40.2710,03:07,10,1,2023-09-09 21:25:55.1700,1694312755.170486,-0.06317870318889618,-0.05053667724132538,0.006599046755582094,-0.0283203125,0.0206146240234375,-1.0138092041015625,103.43789672851562,-24.22357177734375,-42.42460632324219,2023-09-09 21:25:54.8260,1694312754.826186,0.011139122769236565,0.5507885217666626,0.051638275384902954,-0.6531675457954407,-0.11541754566133022,-0.9955139756202698,
0,2023-09-09 21:25:40.2710,03:07,10,1,2023-09-09 21:25:55.2710,1694312755.270824,0.03014272265136242,0.010883008129894733,-0.01569667086005211,0.0009613037109375,-0.003814697265625,-0.9863433837890625,103.21202087402344,-24.012405395507812,-42.48030090332031,2023-09-09 21:25:54.9260,1694312754.925825,-0.16249272227287292,0.6040759682655334,-0.19438114762306213,-0.655197024345398,-0.11894233897328377,-0.9231873154640198,
0,2023-09-09 21:25:40.2710,03:07,10,1,2023-09-09 21:25:55.3710,1694312755.370564,0.04393736273050308,0.006618221756070852,-0.0075945365242660046,0.00067138671875,0.0160675048828125,-0.99554443359375,103.26084899902344,-24.108139038085938,-42.51087951660156,2023-09-09 21:25:55.0260,1694312755.025934,-0.1437446027994156,-0.04436193406581879,-0.01946539431810379,-0.6098326146602631,0.06399531662464142,-0.744720458984375,
0,2023-09-09 21:25:40.2710,03:07,10,1,2023-09-09 21:25:55.4710,1694312755.470811,0.008310394361615181,0.014844193123281002,-0.004245078656822443,-0.03314208984375,0.0310516357421875,-1.013916015625,103.28776550292969,-24.190811157226562,-43.09611511230469,2023-09-09 21:25:55.1260,1694312755.1257691,-0.5238258838653564,0.8500532507896423,0.15592479705810547,-0.6716612279415131,-0.16387945413589478,-0.8666229844093323,
0,2023-09-09 21:25:40.2710,03:07,10,1,2023-09-09 21:25:55.5710,1694312755.5707312,-0.018073542043566704,-0.020006464794278145,-0.005221926141530275,-0.047821044921875,0.009796142578125,-0.9899139404296875,103.68559265136719,-24.423049926757812,-43.82640075683594,2023-09-09 21:25:55.2260,1694312755.2255921,0.11711182445287704,0.7653177380561829,0.1125410795211792,-0.27442917227745056,0.25280754640698433,-1.0429535508155823,
0,2023-09-09 21:25:40.2710,03:07,10,1,2023-09-09 21:25:55.6720,1694312755.671958,0.011773568578064442,-0.004685831721872091,-0.003968376200646162,-0.0413970947265625,0.0292205810546875,-1.005126953125,104.08326721191406,-24.67242431640625,-44.44245910644531,2023-09-09 21:25:55.3250,1694312755.3252602,0.7713111639022827,0.5730373859405518,0.05146164074540138,-0.18720996379852295,0.2839049622416496,-1.185394287109375,
0,2023-09-09 21:25:40.2710,03:07,10,1,2023-09-09 21:25:55.7730,1694312755.772674,0.002234658459201455,-0.007479754276573658,-0.0024311996530741453,-0.040008544921875,0.01715087890625,-0.9949951171875,104.23983764648438,-24.605575561523438,-44.88835144042969,2023-09-09 21:25:55.4250,1694312755.425177,1.0884220600128174,0.2752576172351837,0.2615996301174164,-0.16288742423057556,-0.11586005240678787,-0.939422607421875,
0,2023-09-09 21:25:40.2710,03:07,10,1,2023-09-09 21:25:55.8700,1694312755.870473,-0.007809720002114773,-0.022117819637060165,-0.00256462418474257,-0.0426788330078125,0.015411376953125,-1.0002899169921875,104.30313110351562,-25.047775268554688,-44.74627685546875,2023-09-09 21:25:55.5250,1694312755.524996,-0.0514066107571125,0.1286320835351944,0.1395416557788849,-0.31663498282432556,-0.23884589970111847,-0.87908935546875,
0,2023-09-09 21:25:40.2710,03:07,10,1,2023-09-09 21:25:55.9710,1694312755.970714,0.0060267336666584015,-0.011048123240470886,-0.003311907174065709,-0.0465545654296875,0.02288818359375,-1.0045623779296875,104.52809143066406,-25.090805053710938,-45.15960693359375,2023-09-09 21:25:55.6250,1694312755.624947,-0.8415839076042175,0.3820309042930603,-0.1181364431977272,-0.24533067643642426,-0.27714547514915466,-0.9895020127296448,
0,2023-09-09 21:25:40.2710,03:07,10,1,2023-09-09 21:25:56.0700,1694312756.070311,-0.0035691685043275356,-0.0067934575490653515,-0.0066062374971807,-0.04644775390625,0.016754150390625,-1.00274658203125,104.39410400390625,-25.077163696289062,-45.11460876464844,2023-09-09 21:25:55.7250,1694312755.724935,-0.3753138482570648,0.18745625019073486,-0.027786074206233025,-0.08775314688682556,-0.22827154397964478,-0.9920806884765625,
0,2023-09-09 21:25:40.2710,03:07,10,1,2023-09-09 21:25:56.1700,1694312756.1704879,-0.00239231763407588,-0.010685667395591736,-0.0004239752306602895,-0.0394744873046875,0.0122222900390625,-1.0036468505859375,104.27273559570312,-24.966705322265625,-45.18406677246094,2023-09-09 21:25:55.8240,1694312755.8244739,0.3627154529094696,-0.06499651074409485,0.03943970054388046,-0.15144333243370056,-0.0022431090474128723,-1.0322418212890625,
0,2023-09-09 21:25:40.2710,03:07,10,1,2023-09-09 21:25:56.2720,1694312756.271863,0.0032266860362142324,-0.010304036550223827,0.002689792774617672,-0.0366973876953125,0.0157623291015625,-0.99945068359375,104.51187133789062,-24.904998779296875,-45.24177551269531,2023-09-09 21:25:55.9240,1694312755.92443,0.42583033442497253,0.17680053412914276,-0.01978384144604206,-0.17745955288410187,-0.16665656119585037,-1.0604400634765625,
0,2023-09-09 21:25:40.2710,03:07,10,1,2023-09-09 21:25:56.3850,1694312756.3846679,0.001958488719537854,-0.010190585628151894,0.0055228634737432,-0.0406494140625,0.0165863037109375,-1.0057525634765625,104.70547485351562,-25.436386108398438,-45.00248718261719,2023-09-09 21:25:56.0300,1694312756.030438,0.13217253983020782,0.10449425876140594,0.01791403442621231,-0.12442000210285187,-0.14921577274799347,-0.9809722900390625,
0,2023-09-09 21:25:40.2710,03:07,10,1,2023-09-09 21:25:56.4860,1694312756.486314,-0.004504204262048006,-0.009165002964437008,0.0065471152774989605,-0.0399169921875,0.011199951171875,-0.99371337890625,104.77752685546875,-25.374130249023438,-45.74287414550781,2023-09-09 21:25:56.1240,1694312756.124141,-0.010265568271279335,0.12242265045642853,0.0849577784538269,-0.11694321036338806,-0.03544624149799347,-0.9708251953125,
0,2023-09-09 21:25:40.2710,03:07,10,1,2023-09-09 21:25:56.5710,1694312756.570671,-0.005388640332967043,-0.015599465928971767,0.012566391378641129,-0.037872314453125,0.009002685546875,-1.0029754638671875,104.74708557128906,-25.7501220703125,-45.4122314453125,2023-09-09 21:25:56.2240,1694312756.223933,0.07914320379495621,-0.040927525609731674,0.031076276674866676,-0.15209946036338806,-0.19053657352924347,-0.98187255859375,
0,2023-09-09 21:25:40.2710,03:07,10,1,2023-09-09 21:25:56.6710,1694312756.671389,0.0016298545524477959,0.014600514434278011,-0.0006641923682764173,-0.0539703369140625,0.01605224609375,-0.999755859375,105.02757263183594,-26.04986572265625,-45.46730041503906,2023-09-09 21:25:56.3240,1694312756.323709,0.11348699778318405,-0.10387333482503891,0.0801977813243866,-0.10488876700401306,-0.17456063628196716,-1.0171051025390625,
0,2023-09-09 21:25:40.2710,03:07,10,1,2023-09-09 21:25:56.7710,1694312756.771467,-0.0024517059791833162,0.00881932396441698,-0.0021672805305570364,-0.04248046875,0.0103912353515625,-0.9962158203125,104.72163391113281,-25.880096435546875,-44.950531005859375,2023-09-09 21:25:56.4240,1694312756.423561,-0.04028232395648956,0.15330813825130463,0.47024422883987427,-0.15667709708213806,-0.14610299468040466,-0.9325103759765625,
0,2023-09-09 21:25:40.2710,03:07,10,1,2023-09-09 21:25:56.8710,1694312756.871028,-0.004089550115168095,-7.190534688561456e-06,-0.000734766130335629,-0.0444793701171875,0.0212860107421875,-0.9923858642578125,104.54464721679688,-25.754745483398438,-44.98051452636719,2023-09-09 21:25:56.5230,1694312756.5233989,0.3041849732398987,-0.1249244213104248,0.4758603274822235,-0.09658798575401306,0.04096975922584534,-0.956756591796875,
0,2023-09-09 21:25:40.2710,03:07,10,1,2023-09-09 21:25:56.9700,1694312756.970467,-0.004564125556498766,-0.013785853050649166,-0.0013046825770288706,-0.054931640625,0.0087890625,-0.9947357177734375,104.47088623046875,-25.768325805664062,-44.82374572753906,2023-09-09 21:25:56.6230,1694312756.6232839,0.19706271588802338,0.18198637664318085,-0.12402453273534775,-0.23294052481651306,-0.13093577325344086,-0.95849609375,
0,2023-09-09 21:25:40.2710,03:07,10,1,2023-09-09 21:25:57.0700,1694312757.070382,-0.006984139792621136,-0.010644921101629734,0.0027981833554804325,-0.04571533203125,0.01654052734375,-0.9995574951171875,104.42134094238281,-25.968780517578125,-45.09812927246094,2023-09-09 21:25:56.7230,1694312756.7231998,-0.15465803444385529,0.07221381366252899,-0.03227449953556061,-0.11035141348838806,-0.29875192046165466,-0.906219482421875,
0,2023-09-09 21:25:40.2710,03:07,10,1,2023-09-09 21:25:57.1730,1694312757.172875,-0.004604871850460768,-0.0013068130938336253,0.0002324939559912309,-0.0478057861328125,0.0157928466796875,-0.995941162109375,104.40904235839844,-25.82696533203125,-45.109405517578125,2023-09-09 21:25:56.8230,1694312756.822897,0.061695441603660583,0.3925803601741791,0.04800908640027046,-0.17556747794151306,-0.15873728692531586,-0.960968017578125,
0,2023-09-09 21:25:40.2710,03:07,10,1,2023-09-09 21:25:57.2710,1694312757.270592,-0.007422229740768671,-0.0032538501545786858,0.0009827064350247383,-0.0407257080078125,0.014923095703125,-0.998626708984375,104.44706726074219,-25.923431396484375,-45.16661071777344,2023-09-09 21:25:56.9230,1694312756.922792,-0.12409986555576324,0.09243519604206085,-0.009501943364739418,-0.07188400626182556,-0.27244576811790466,-0.964447021484375,
0,2023-09-09 21:25:40.2710,03:07,10,1,2023-09-09 21:25:57.3720,1694312757.3722181,0.002385925967246294,-0.003707652911543846,-0.0014407701091840863,-0.045928955078125,0.0165863037109375,-0.9998016357421875,104.47993469238281,-25.858779907226562,-44.918609619140625,2023-09-09 21:25:57.0230,1694312757.022758,-0.1268775910139084,-0.00025759171694517136,-0.005465489812195301,-0.09817489981651306,-0.15637217462062836,-0.9790496826171875,
0,2023-09-09 21:25:40.2710,03:07,10,1,2023-09-09 21:25:57.4720,1694312757.4715219,-0.0032139027025550604,-0.00717721926048398,-0.0032290827948600054,-0.044525146484375,0.011962890625,-1.0016021728515625,104.50004577636719,-25.792755126953125,-45.09309387207031,2023-09-09 21:25:57.1230,1694312757.122596,-0.10642092674970627,-0.006546913646161556,0.0010772976092994213,-0.08697494119405746,-0.16308604180812836,-0.9740294814109802,
0,2023-09-09 21:25:40.2710,03:07,10,1,2023-09-09 21:25:57.5710,1694312757.571437,-0.0020724718924611807,-0.002379534300416708,-0.0032743564806878567,-0.0467987060546875,0.0146331787109375,-0.9998016357421875,104.51588439941406,-25.991455078125,-45.412506103515625,2023-09-09 21:25:57.2220,1694312757.22219,-0.08616472035646439,0.021496038883924484,-0.009895958006381989,-0.10432419180870056,-0.14364632964134216,-0.9812468886375427,
0,2023-09-09 21:25:40.2710,03:07,10,1,2023-09-09 21:25:57.6710,1694312757.670566,-0.0046935551799833775,-0.007472829893231392,-0.002424275502562523,-0.04241943359375,0.0121917724609375,-1.004730224609375,104.70999145507812,-25.89251708984375,-45.28489685058594,2023-09-09 21:25:57.3220,1694312757.322087,0.046891260892152786,0.018418623134493828,0.011415356770157814,-0.11364731192588806,-0.05177316069602966,-0.9991912841796875,
0,2023-09-09 21:25:40.2710,03:07,10,1,2023-09-09 21:25:57.7710,1694312757.770612,-0.0023105584550648928,-0.008378304541110992,-0.002817890839651227,-0.0503387451171875,0.0114593505859375,-1.003326416015625,104.48753356933594,-25.959915161132812,-45.485443115234375,2023-09-09 21:25:57.4220,1694312757.421838,0.04510008543729782,-0.056665875017642975,0.013672218658030033,-0.08842453360557556,-0.08705149590969086,-0.98388671875,
0,2023-09-09 21:25:40.2710,03:07,10,1,2023-09-09 21:25:57.8700,1694312757.87016,-0.002621615771204233,-0.0022362563759088516,-0.004041879437863827,-0.0439605712890625,0.0131378173828125,-1.00408935546875,104.58999633789062,-25.96881103515625,-45.221710205078125,2023-09-09 21:25:57.5220,1694312757.5219831,-0.026334747672080994,0.011889884248375893,-0.005537528544664383,-0.09634383022785187,-0.10395821928977966,-0.9915923476219177,
0,2023-09-09 21:25:40.2710,03:07,10,1,2023-09-09 21:25:57.9730,1694312757.9727612,-0.005352687556296587,-0.006554305553436279,-0.004320446401834488,-0.045501708984375,0.01226806640625,-1.0032958984375,104.5411376953125,-25.982757568359375,-45.486785888671875,2023-09-09 21:25:57.6220,1694312757.621568,-0.005444248206913471,0.012394819408655167,0.0016521408688277006,-0.09970077127218246,-0.09947213530540466,-0.9863585829734802,
0,2023-09-09 21:25:40.2710,03:07,10,1,2023-09-09 21:25:58.0730,1694312758.072598,-0.000696150294970721,-0.0028879318851977587,-0.0008689894457347691,-0.045623779296875,0.012939453125,-1.00152587890625,104.64212036132812,-25.775726318359375,-45.261260986328125,2023-09-09 21:25:57.7210,1694312757.721365,-0.019088154658675194,-0.009627126157283783,0.006209608167409897,-0.09068283438682556,-0.10343942046165466,-0.98944091796875,
0,2023-09-09 21:25:40.2710,03:07,10,1,2023-09-09 21:25:58.1710,1694312758.171473,-0.0001478054327890277,-0.00520727876573801,-0.002715891692787409,-0.0412139892578125,0.0131378173828125,-1.0058441162109375,104.45585632324219,-25.876541137695312,-45.27626037597656,2023-09-09 21:25:57.8210,1694312757.821303,-0.020771073177456856,-0.02576681599020958,-0.0014300353359431028,-0.09294113516807556,-0.10458383709192276,-0.9932861328125,
0,2023-09-09 21:25:40.2710,03:07,10,1,2023-09-09 21:25:58.2710,1694312758.271014,-0.0010210559703409672,-0.005089833401143551,0.00011078749957960099,-0.0423736572265625,0.0159759521484375,-1.000396728515625,104.70938110351562,-25.751113891601562,-45.14906311035156,2023-09-09 21:25:57.9210,1694312757.921098,-0.043745964765548706,0.0199909545481205,-0.008403755724430084,-0.10704026371240616,-0.10766610503196716,-0.9878997802734375,
0,2023-09-09 21:25:40.2710,03:07,10,1,2023-09-09 21:25:58.3870,1694312758.387192,-0.005618204362690449,-0.005591040477156639,-0.004956675227731466,-0.0482177734375,0.014556884765625,-0.9976654052734375,104.8515625,-26.166168212890625,-44.54637145996094,2023-09-09 21:25:58.0210,1694312758.020916,-0.009060886688530445,0.012541959062218666,3.73664079234004e-05,-0.10557541996240616,-0.08805856853723526,-0.9959564208984375,
0,2023-09-09 21:25:40.2710,03:07,10,1,2023-09-09 21:25:58.4720,1694312758.471761,0.0005185174522921443,-0.006902913562953472,-0.0026647590566426516,-0.044708251953125,0.016204833984375,-1.00213623046875,104.63536071777344,-25.732864379882812,-45.674407958984375,2023-09-09 21:25:58.1210,1694312758.1209788,-0.025483403354883194,0.013513213954865932,-0.005401407368481159,-0.10585007816553116,-0.10609444975852966,-0.9820556640625,
0,2023-09-09 21:25:40.2710,03:07,10,1,2023-09-09 21:25:58.5710,1694312758.570889,-0.0007816377910785377,-0.004464789759367704,-0.004266384057700634,-0.0451812744140625,0.0160369873046875,-0.9973907470703125,104.64208984375,-25.907135009765625,-45.22193908691406,2023-09-09 21:25:58.2210,1694312758.220622,-0.029393522068858147,0.009715412743389606,-0.008463343605399132,-0.10295090079307556,-0.11550912261009216,-0.9859161376953125,
0,2023-09-09 21:25:40.2710,03:07,10,1,2023-09-09 21:25:58.6710,1694312758.6707969,-0.0008159925346262753,-0.005282380152493715,-0.005481051746755838,-0.0479736328125,0.0172882080078125,-1.000091552734375,104.64208984375,-25.907135009765625,-45.22193908691406,2023-09-09 21:25:58.3200,1694312758.320318,-0.021935472264885902,-0.0014304481446743011,-0.0007912428118288517,-0.10325607657432556,-0.10185250639915466,-0.9854736328125,
0,2023-09-09 21:25:40.2710,03:07,10,1,2023-09-09 21:25:58.7710,1694312758.7707338,-0.002103364560753107,-0.004829376470297575,-0.0007848335662856698,-0.04400634765625,0.0158843994140625,-1.0020294189453125,104.60566711425781,-26.000595092773438,-45.549041748046875,2023-09-09 21:25:58.4200,1694312758.420384,0.016612783074378967,0.006884606555104256,0.004825463518500328,-0.10784896463155746,-0.08045968413352966,-0.9880065321922302,
0,2023-09-09 21:25:40.2710,03:07,10,1,2023-09-09 21:25:58.8710,1694312758.871159,-0.00010572749306447804,-0.004650411661714315,-0.004779575392603874,-0.046905517578125,0.01397705078125,-0.9990234375,104.75338745117188,-25.85699462890625,-45.30143737792969,2023-09-09 21:25:58.5200,1694312758.520227,-0.02030874975025654,0.017360150814056396,-0.004150453954935074,-0.09754928201436996,-0.10874947905540466,-0.9813994765281677,
0,2023-09-09 21:25:40.2710,03:07,10,1,2023-09-09 21:25:58.9710,1694312758.971204,5.672533006872982e-05,-0.004509796854108572,-0.003195793367922306,-0.0457916259765625,0.0164794921875,-1.000732421875,104.81340026855469,-25.974899291992188,-45.49560546875,2023-09-09 21:25:58.6200,1694312758.619982,-0.014618771150708199,0.0023756087757647038,0.0011114859953522682,-0.10391221195459366,-0.09912119060754776,-0.9874420166015625,
0,2023-09-09 21:25:40.2710,03:07,10,1,2023-09-09 21:25:59.0720,1694312759.071904,-0.004055195488035679,-0.005533782299607992,-0.0023483755066990852,-0.04327392578125,0.015655517578125,-1.0018463134765625,104.88772583007812,-26.055862426757812,-45.58598327636719,2023-09-09 21:25:58.7200,1694312758.7197828,0.00748839508742094,-0.0032183611765503883,0.0002643343759700656,-0.10078415274620056,-0.08825692534446716,-0.9865570068359375,
0,2023-09-09 21:25:40.2710,03:07,10,1,2023-09-09 21:25:59.1720,1694312759.171865,0.0012562130577862263,-0.0076331524178385735,-0.0035412053111940622,-0.0484771728515625,0.0130157470703125,-0.998687744140625,104.68205261230469,-25.868453979492188,-45.61018371582031,2023-09-09 21:25:58.8200,1694312758.8198981,0.014198096469044685,0.013744642958045006,0.0036823018454015255,-0.09983810782432556,-0.08508309721946716,-0.9937896132469177,
0,2023-09-09 21:25:40.2710,03:07,10,1,2023-09-09 21:25:59.2710,1694312759.27073,0.003710582386702299,-0.01053386740386486,-0.0028479844331741333,-0.0486297607421875,0.0154571533203125,-1.001190185546875,104.66294860839844,-25.90802001953125,-45.32464599609375,2023-09-09 21:25:58.9200,1694312758.919574,0.00434113759547472,-0.0017119450494647026,0.0027799231465905905,-0.09848007559776306,-0.08670053631067276,-0.9904937744140625,
0,2023-09-09 21:25:40.2710,03:07,10,1,2023-09-09 21:25:59.3700,1694312759.370434,-0.002981142606586218,-0.0027545075863599777,-5.512743518920615e-05,-0.0399169921875,0.0160369873046875,-0.9996185302734375,104.84881591796875,-25.959930419921875,-45.14166259765625,2023-09-09 21:25:59.0200,1694312759.019536,-0.005096904933452606,-0.0030087707564234734,-0.001111854100599885,-0.09593185782432556,-0.09568795561790466,-0.985321044921875,
0,2023-09-09 21:25:40.2710,03:07,10,1,2023-09-09 21:25:59.4720,1694312759.4717321,-0.003328951308503747,-0.0068302094005048275,-0.001264202524907887,-0.04864501953125,0.017822265625,-0.9961700439453125,104.94107055664062,-26.017501831054688,-44.89640808105469,2023-09-09 21:25:59.1190,1694312759.1193771,-0.01624017022550106,0.009182248264551163,0.0010618511587381363,-0.10110458731651306,-0.09281930327415466,-0.985870361328125,
0,2023-09-09 21:25:40.2710,03:07,10,1,2023-09-09 21:25:59.5710,1694312759.571052,-0.003328951308503747,-0.0068302094005048275,-0.001264202524907887,-0.049285888671875,0.016082763671875,-1.0033111572265625,104.85423278808594,-25.705474853515625,-45.50447082519531,2023-09-09 21:25:59.2190,1694312759.219098,0.005010656081140041,-0.021729327738285065,2.4350243620574474e-05,-0.09259018301963806,-0.11061105132102966,-0.981903076171875,
0,2023-09-09 21:25:40.2710,03:07,10,1,2023-09-09 21:25:59.6720,1694312759.672474,-0.0006503439508378506,-0.006280532572418451,0.0002271676348755136,-0.0524139404296875,0.0172271728515625,-0.9962310791015625,104.86720275878906,-25.810684204101562,-45.884246826171875,2023-09-09 21:25:59.3190,1694312759.3188782,0.007847188971936703,0.013926403596997261,-0.0008727353997528553,-0.10163865238428116,-0.09140023589134216,-0.9881134033203125,
0,2023-09-09 21:25:40.2710,03:07,10,1,2023-09-09 21:25:59.7710,1694312759.770887,-0.0006503439508378506,-0.006280532572418451,0.0002271676348755136,-0.0495758056640625,0.0151519775390625,-1.001251220703125,104.84928894042969,-26.081893920898438,-45.446380615234375,2023-09-09 21:25:59.4190,1694312759.418765,0.01480196788907051,-0.010193712078034878,-0.00020917551591992378,-0.09699997305870056,-0.09399423003196716,-0.986419677734375,
0,2023-09-09 21:25:40.2710,03:07,10,1,2023-09-09 21:25:59.8710,1694312759.8710098,0.0001930791768245399,-0.00436092633754015,-0.0020178770646452904,-0.0468292236328125,0.014251708984375,-1.002471923828125,104.6922607421875,-25.785446166992188,-45.440887451171875,2023-09-09 21:25:59.5190,1694312759.5187101,0.026228459551930428,0.00028835609555244446,-0.0015195508021861315,-0.09268173575401306,-0.08128365874290466,-0.9954376220703125,
0,2023-09-09 21:25:40.2710,03:07,10,1,2023-09-09 21:25:59.9710,1694312759.971009,-0.0013574132462963462,-0.007843275554478168,0.0012026835465803742,-0.048095703125,0.0161895751953125,-1.0035858154296875,104.89387512207031,-25.85321044921875,-45.4576416015625,2023-09-09 21:25:59.6180,1694312759.6184158,0.014081450179219246,-0.002045239321887493,-0.00667007127776742,-0.09474167227745056,-0.09361276030540466,-0.9888916015625,
0,2023-09-09 21:25:40.2710,03:07,10,1,2023-09-09 21:26:00.0710,1694312760.070778,-0.003364637726917863,-0.0054424358531832695,-0.0001280980504816398,-0.0526123046875,0.0123443603515625,-1.0040435791015625,104.8570556640625,-26.27960205078125,-45.30914306640625,2023-09-09 21:25:59.7180,1694312759.7182112,-0.022312510758638382,-0.00021884310990571976,-0.0023164681624621153,-0.09480270743370056,-0.10923776030540466,-0.984466552734375,
0,2023-09-09 21:25:40.2710,03:07,10,1,2023-09-09 21:26:00.1710,1694312760.1709409,-0.0016713999211788177,-0.006992661859840155,-0.007446464616805315,-0.0464019775390625,0.0167999267578125,-0.9980010986328125,104.86729431152344,-26.137008666992188,-45.49784851074219,2023-09-09 21:25:59.8180,1694312759.8180408,-0.01015830971300602,0.013282185420393944,-0.008141500875353813,-0.09753401577472687,-0.09916695952415466,-0.9878234267234802,
0,2023-09-09 21:25:40.2710,03:07,10,1,2023-09-09 21:26:00.2880,1694312760.28833,-0.0013233247445896268,-0.0028421254828572273,2.50337143370416e-05,-0.051025390625,0.013427734375,-1.003204345703125,104.84072875976562,-25.9239501953125,-45.74072265625,2023-09-09 21:25:59.9180,1694312759.9178739,-0.01710662990808487,-0.0016554854810237885,-0.0027711698785424232,-0.09185776114463806,-0.10725411772727966,-0.98577880859375,
0,2023-09-09 21:25:40.2710,03:07,10,1,2023-09-09 21:26:00.3710,1694312760.371187,-0.0013233247445896268,-0.0028421254828572273,2.50337143370416e-05,-0.04779052734375,0.0151824951171875,-1.0003814697265625,104.84072875976562,-25.9239501953125,-45.74072265625,2023-09-09 21:26:00.0180,1694312760.018165,0.028551602736115456,0.014263160526752472,0.0007721991278231144,-0.09480269998311996,-0.08274850249290466,-0.986907958984375,
0,2023-09-09 21:25:40.2710,03:07,10,1,2023-09-09 21:26:00.4700,1694312760.4703531,-0.001585912425071001,-0.003885019337758422,-0.0019433086272329092,-0.0482330322265625,0.01763916015625,-0.9997406005859375,105.03199768066406,-26.249557495117188,-45.65301513671875,2023-09-09 21:26:00.1180,1694312760.11776,0.003987536765635014,0.009546969085931778,0.0039376989006996155,-0.09451279044151306,-0.08407601714134216,-0.9860076904296875,
0,2023-09-09 21:25:40.2710,03:07,10,1,2023-09-09 21:26:00.5710,1694312760.571134,0.0011936287628486753,-0.0010849718237295747,-0.0015089471125975251,-0.0485992431640625,0.0154876708984375,-1.0028839111328125,105.00546264648438,-26.229446411132812,-45.61112976074219,2023-09-09 21:26:00.2180,1694312760.217659,-0.0026284214109182358,0.014384334906935692,-0.0007057220209389925,-0.09075912088155746,-0.10322579741477966,-0.989288330078125,
0,2023-09-09 21:25:40.2710,03:07,10,1,2023-09-09 21:26:00.6710,1694312760.6708798,-0.004741758108139038,0.0033153691329061985,-0.00555056007578969,-0.0492706298828125,0.017333984375,-1.00018310546875,104.94085693359375,-25.89703369140625,-45.69093322753906,2023-09-09 21:26:00.3170,1694312760.317247,-0.006550990976393223,0.0037202383391559124,-0.005992230027914047,-0.09008773416280746,-0.09921272844076157,-0.9853820204734802,
0,2023-09-09 21:25:40.2710,03:07,10,1,2023-09-09 21:26:00.7710,1694312760.771095,-0.0017544905422255397,-0.009544236585497856,-0.002064748667180538,-0.05078125,0.0161895751953125,-1.004180908203125,104.886474609375,-26.046310424804688,-45.49061584472656,2023-09-09 21:26:00.4170,1694312760.4172502,-0.0014079611282795668,0.009810755029320717,-0.0036380954552441835,-0.09812912344932556,-0.09172067791223526,-0.9926910400390625,
0,2023-09-09 21:25:40.2710,03:07,10,1,2023-09-09 21:26:00.8700,1694312760.869838,0.0009954896522685885,-0.004430701024830341,-0.006165218073874712,-0.04876708984375,0.0130615234375,-1.004425048828125,105.01676940917969,-26.080001831054688,-45.59721374511719,2023-09-09 21:26:00.5170,1694312760.516955,-0.002613973570987582,-0.010981876403093338,-0.00404589157551527,-0.08702072501182556,-0.09664925932884216,-0.986572265625,
0,2023-09-09 21:25:40.2710,03:07,10,1,2023-09-09 21:26:00.9710,1694312760.971096,0.00038748994120396674,-0.0022924491204321384,-0.006134857889264822,-0.0477752685546875,0.013916015625,-1.0016937255859375,105.08198547363281,-25.989212036132812,-45.73760986328125,2023-09-09 21:26:00.6170,1694312760.616798,-0.004481648560613394,-0.0196070559322834,0.0028542252257466316,-0.09181198477745056,-0.08976754546165466,-0.9891204833984375,
0,2023-09-09 21:25:40.2710,03:07,10,1,2023-09-09 21:26:01.0720,1694312761.072033,-0.0009345032158307731,-0.0013970943400636315,-0.0006255765329115093,-0.046142578125,0.0165252685546875,-1.00103759765625,105.00593566894531,-25.934356689453125,-45.31294250488281,2023-09-09 21:26:00.7170,1694312760.7166681,0.01761533133685589,-0.014934406615793705,0.010670635849237442,-0.09133895486593246,-0.08547981828451157,-0.999481201171875,
0,2023-09-09 21:25:40.2710,03:07,10,1,2023-09-09 21:26:01.1720,1694312761.1722221,0.00032623723382130265,-0.0019678096286952496,-0.003935619257390499,-0.044769287109375,0.016265869140625,-1.0017547607421875,104.96189880371094,-25.858291625976562,-45.25358581542969,2023-09-09 21:26:00.8170,1694312760.8166409,0.008090202696621418,-0.012896688655018806,-0.002712646732106805,-0.08702072501182556,-0.09895333647727966,-0.9888458251953125,
0,2023-09-09 21:25:40.2710,03:07,10,1,2023-09-09 21:26:01.2720,1694312761.271965,0.000597879639826715,-0.0008221178431995213,-0.0019688750617206097,-0.045013427734375,0.0143585205078125,-1.0015716552734375,104.96002197265625,-26.185272216796875,-45.3275146484375,2023-09-09 21:26:00.9160,1694312760.916215,-0.01811683364212513,-0.012109591625630856,0.002857187995687127,-0.09277328848838806,-0.08840951323509216,-0.98883056640625,
0,2023-09-09 21:25:40.2710,03:07,10,1,2023-09-09 21:26:01.3710,1694312761.370775,0.001359543763101101,-0.003698331769555807,-0.005336175672709942,-0.0483856201171875,0.0124664306640625,-1.00103759765625,105.01362609863281,-26.238616943359375,-45.16246032714844,2023-09-09 21:26:01.0160,1694312761.016193,-0.005449906922876835,-0.0006947498768568039,0.006415903568267822,-0.09977706521749496,-0.07479867339134216,-0.9940185546875,
0,2023-09-09 21:25:40.2710,03:07,10,1,2023-09-09 21:26:01.4710,1694312761.471075,-0.0005629922379739583,0.0006876281695440412,-0.005572664551436901,-0.0454864501953125,0.0142822265625,-1.0003204345703125,105.05043029785156,-26.284133911132812,-44.882232666015625,2023-09-09 21:26:01.1160,1694312761.1161718,0.03887714445590973,0.00018582399934530258,0.0014765055384486914,-0.09916672855615616,-0.08639536052942276,-0.9886016845703125,
0,2023-09-09 21:25:40.2710,03:07,10,1,2023-09-09 21:26:01.5710,1694312761.571187,-0.0034264230635017157,-0.005455485545098782,-0.004206995479762554,-0.0450897216796875,0.0166473388671875,-1.0008697509765625,105.12959289550781,-26.1929931640625,-45.299285888671875,2023-09-09 21:26:01.2160,1694312761.215846,0.0349971204996109,0.02195090800523758,0.002738744020462036,-0.09915146231651306,-0.07762154936790466,-0.9905853271484375,
0,2023-09-09 21:25:40.2710,03:07,10,1,2023-09-09 21:26:01.6710,1694312761.670742,0.003020290983840823,-0.0010631339391693473,-0.004837365821003914,-0.0440826416015625,0.0161285400390625,-0.9998779296875,105.068115234375,-26.136383056640625,-45.00505065917969,2023-09-09 21:26:01.3160,1694312761.315753,0.02103256806731224,-0.0031669624149799347,0.006639076396822929,-0.09434493631124496,-0.06716927886009216,-0.990142822265625,
0,2023-09-09 21:25:40.2710,03:07,10,1,2023-09-09 21:26:01.7710,1694312761.770794,-0.00022770027862861753,-0.003913248889148235,-0.0037792918737977743,-0.0457916259765625,0.013092041015625,-1.000274658203125,105.06231689453125,-26.324981689453125,-44.90382385253906,2023-09-09 21:26:01.4160,1694312761.415539,0.010501495562493801,0.006085392087697983,0.0001241189893335104,-0.09152206033468246,-0.07354745268821716,-0.991058349609375,
0,2023-09-09 21:25:40.2710,03:07,10,1,2023-09-09 21:26:01.8710,1694312761.870661,0.0002407497668173164,-0.0044235107488930225,-0.002662894781678915,-0.0460052490234375,0.0136871337890625,-1.0009613037109375,105.0804443359375,-26.183975219726562,-45.28253173828125,2023-09-09 21:26:01.5150,1694312761.515373,0.031094256788492203,0.003339939285069704,-0.0004914042074233294,-0.09802229702472687,-0.06694038957357407,-0.9974212646484375,
0,2023-09-09 21:25:40.2710,03:07,10,1,2023-09-09 21:26:01.9710,1694312761.971144,-0.0027382622938603163,-0.003727626521140337,-0.0007150587625801563,-0.044097900390625,0.0144805908203125,-1.00146484375,104.85945129394531,-25.798919677734375,-45.568634033203125,2023-09-09 21:26:01.6150,1694312761.6152291,-0.004629387520253658,0.02916647493839264,-0.009957077912986279,-0.08401475101709366,-0.10455331951379776,-0.9829864501953125,
0,2023-09-09 21:25:40.2710,03:07,10,1,2023-09-09 21:26:02.0710,1694312762.071111,-0.00141041015740484,-0.002609098795801401,-0.0015843145083636045,-0.04364013671875,0.015106201171875,-1.0013427734375,104.9952392578125,-25.809829711914062,-45.577789306640625,2023-09-09 21:26:01.7150,1694312761.715039,-0.03633032366633415,0.033723678439855576,-0.011469487100839615,-0.08050522208213806,-0.12173470854759216,-0.980224609375,
0,2023-09-09 21:25:40.2710,03:07,10,1,2023-09-09 21:26:02.1850,1694312762.1850019,-0.0005571332876570523,-0.0043928842060267925,-0.00205249828286469,-0.04705810546875,0.0145263671875,-0.99920654296875,105.05984497070312,-26.039276123046875,-45.37225341796875,2023-09-09 21:26:01.8150,1694312761.8148808,-0.02326139621436596,-0.013721869327127934,0.0019210202153772116,-0.08122237771749496,-0.11196908354759216,-0.9837493896484375,
0,2023-09-09 21:25:40.2710,03:07,10,1,2023-09-09 21:26:02.2710,1694312762.270855,-0.0005571332876570523,-0.0043928842060267925,-0.00205249828286469,-0.0457305908203125,0.0170440673828125,-0.9990081787109375,104.86834716796875,-26.080734252929688,-45.574005126953125,2023-09-09 21:26:01.9150,1694312761.914791,-0.025095779448747635,-0.012408929876983166,0.0034705805592238903,-0.07948286831378937,-0.10505684465169907,-0.9859771132469177,
0,2023-09-09 21:25:40.2710,03:07,10,1,2023-09-09 21:26:02.3700,1694312762.370157,0.0001776328426785767,-0.005638711154460907,-0.0036336169578135014,-0.0500030517578125,0.0119781494140625,-1.00274658203125,104.89356994628906,-26.159210205078125,-45.3746337890625,2023-09-09 21:26:02.0140,1694312762.014471,-0.01741688698530197,0.001424726564437151,-0.0005488952156156301,-0.08860763162374496,-0.10423287749290466,-0.9800109267234802,
0,2023-09-09 21:25:40.2710,03:07,10,1,2023-09-09 21:26:02.4710,1694312762.470587,-0.0009113337146118283,0.0036991306114941835,-0.006485329940915108,-0.04376220703125,0.0141143798828125,-1.00048828125,104.95768737792969,-26.053970336914062,-45.54249572753906,2023-09-09 21:26:02.1150,1694312762.114636,-0.003618251532316208,-0.013550760224461555,0.0009849523194134235,-0.08633407205343246,-0.10554513335227966,-0.99066162109375,
0,2023-09-09 21:25:40.2710,03:07,10,1,2023-09-09 21:26:02.5720,1694312762.57177,-0.008595884777605534,-0.005816077347844839,-0.00033662354690022767,-0.044158935546875,0.0156097412109375,-1.00213623046875,104.89936828613281,-26.066009521484375,-45.32041931152344,2023-09-09 21:26:02.2140,1694312762.214318,-0.00018270732834935188,-0.04204964637756348,0.00832325965166092,-0.09336838126182556,-0.08781442791223526,-0.9908447265625,
0,2023-09-09 21:25:40.2710,03:07,10,1,2023-09-09 21:26:02.6720,1694312762.671814,0.00021411814668681473,-0.0011728560784831643,-0.0033161682076752186,-0.0435028076171875,0.015350341796875,-1.0004119873046875,105.05258178710938,-26.190185546875,-45.462188720703125,2023-09-09 21:26:02.3140,1694312762.3140159,0.03463958948850632,-0.026745524257421494,0.005199038423597813,-0.08502182364463806,-0.09626779705286026,-0.9930877685546875,
0,2023-09-09 21:25:40.2710,03:07,10,1,2023-09-09 21:26:02.7710,1694312762.77086,-0.002335592173039913,-0.006628874223679304,-0.0036245621740818024,-0.0465240478515625,0.014129638671875,-1.0002899169921875,104.88662719726562,-25.944869995117188,-45.44390869140625,2023-09-09 21:26:02.4140,1694312762.414082,-0.06417553871870041,-0.028391093015670776,0.006083142012357712,-0.08976730704307556,-0.10745248198509216,-0.983154296875,
0,2023-09-09 21:25:40.2710,03:07,10,1,2023-09-09 21:26:02.8710,1694312762.8708591,-0.006555104628205299,-0.0060144830495119095,-0.0011440940434113145,-0.044281005859375,0.0147552490234375,-1.0020751953125,104.78770446777344,-25.853805541992188,-45.129608154296875,2023-09-09 21:26:02.5140,1694312762.5138059,-0.04377026855945587,-0.035307854413986206,-0.007383198477327824,-0.10124191641807556,-0.08880624175071716,-0.990509033203125,
0,2023-09-09 21:25:40.2710,03:07,10,1,2023-09-09 21:26:02.9710,1694312762.9712481,-0.0026610305067151785,-0.0020418455824255943,-0.005786249879747629,-0.0475311279296875,0.014862060546875,-1.0005035400390625,104.82156372070312,-26.033843994140625,-45.4200439453125,2023-09-09 21:26:02.6140,1694312762.613574,0.004863915964961052,-0.01382346823811531,-0.0009016308467835188,-0.10336288809776306,-0.13020334392786026,-0.9853973388671875,
0,2023-09-09 21:25:40.2710,03:07,10,1,2023-09-09 21:26:03.0710,1694312763.070784,-0.007208644412457943,-0.008159392513334751,-0.01799790933728218,-0.047882080078125,0.014678955078125,-1.0009918212890625,104.69929504394531,-26.098297119140625,-45.177825927734375,2023-09-09 21:26:02.7130,1694312762.713434,0.014802567660808563,0.026176678016781807,0.0026596812531352043,-0.09977707266807556,-0.07810983061790466,-0.9928131103515625,
0,2023-09-09 21:25:40.2710,03:07,10,1,2023-09-09 21:26:03.1850,1694312763.1853728,0.003288471372798085,0.005053347907960415,-0.02137133479118347,-0.0473785400390625,0.010955810546875,-0.9990692138671875,104.35945129394531,-25.647308349609375,-45.01849365234375,2023-09-09 21:26:02.8130,1694312762.813282,-0.0021692924201488495,0.03453221172094345,7.618195377290249e-05,-0.10455306619405746,-0.08694466203451157,-0.9915313720703125,
0,2023-09-09 21:25:40.2710,03:07,10,1,2023-09-09 21:26:03.2720,1694312763.27183,-0.004247475415468216,0.002439189236611128,-0.013904363848268986,-0.045623779296875,0.01837158203125,-0.9942169189453125,104.14387512207031,-25.457992553710938,-44.626068115234375,2023-09-09 21:26:02.9130,1694312762.913094,0.008781293407082558,-0.011270828545093536,0.0026959669776260853,-0.08946213126182556,-0.09320078045129776,-0.9824676513671875,
0,2023-09-09 21:25:40.2710,03:07,10,1,2023-09-09 21:26:03.3710,1694312763.370996,-0.0030450583435595036,-0.0045572011731565,-0.014682273380458355,-0.042144775390625,0.0164031982421875,-0.9986114501953125,104.04595947265625,-25.28466796875,-44.39582824707031,2023-09-09 21:26:03.0130,1694312763.012957,-0.04238063097000122,0.055203136056661606,0.010507384315133095,-0.11810288578271866,-0.09767159819602966,-0.998931884765625,
0,2023-09-09 21:25:40.2710,03:07,10,1,2023-09-09 21:26:03.4730,1694312763.472526,0.0026202842127531767,0.0006388923502527177,-0.011569837108254433,-0.0431976318359375,0.0128326416015625,-1.001434326171875,103.63107299804688,-25.097213745117188,-43.97865295410156,2023-09-09 21:26:03.1130,1694312763.1131349,0.04476166516542435,-0.003299986943602562,0.006746102124452591,-0.10208115726709366,-0.13278207927942276,-1.010955810546875,
0,2023-09-09 21:25:40.2710,03:07,10,1,2023-09-09 21:26:03.5710,1694312763.5706449,-0.0016450346447527409,-0.002025333931669593,-0.005852562841027975,-0.0423583984375,0.01513671875,-0.9981231689453125,103.26773071289062,-25.108016967773438,-43.66401672363281,2023-09-09 21:26:03.2130,1694312763.212556,-0.058238886296749115,-0.03745289891958237,0.001673778984695673,-0.09239181876182556,-0.07127390056848526,-0.98626708984375,
0,2023-09-09 21:25:40.2710,03:07,10,1,2023-09-09 21:26:03.6720,1694312763.6723928,-0.006650712341070175,-0.00047377636656165123,-0.003570233704522252,-0.040985107421875,0.01617431640625,-1.0035858154296875,103.27232360839844,-25.125442504882812,-43.48193359375,2023-09-09 21:26:03.3130,1694312763.312592,-0.1378028243780136,-0.06639666855335236,0.07255733758211136,-0.11492905020713806,-0.11996468156576157,-1.0076445937156677,
0,2023-09-09 21:25:40.2710,03:07,10,1,2023-09-09 21:26:03.7710,1694312763.771122,-0.006792392116039991,-0.0005558017292059958,-0.006791859865188599,-0.04290771484375,0.01727294921875,-1.004058837890625,103.17610168457031,-25.297744750976562,-43.62065124511719,2023-09-09 21:26:03.4120,1694312763.412401,-0.01739485003054142,0.021304823458194733,0.017687933519482613,-0.10391221195459366,-0.06456002593040466,-0.984375,
0,2023-09-09 21:25:40.2710,03:07,10,1,2023-09-09 21:26:03.8710,1694312763.87108,0.005345230456441641,0.006458431947976351,-0.00024820660473778844,-0.0428466796875,0.013702392578125,-0.999237060546875,103.33433532714844,-25.307754516601562,-43.63798522949219,2023-09-09 21:26:03.5120,1694312763.51233,-0.0033864236902445555,-0.009583715349435806,0.024051455780863762,-0.10591109842061996,-0.061981283128261566,-0.9880523681640625,
0,2023-09-09 21:25:40.2710,03:07,10,1,2023-09-09 21:26:03.9710,1694312763.9711452,-0.0075820195488631725,-0.011463310569524765,-0.002082591876387596,-0.04248046875,0.0202789306640625,-1.0007171630859375,103.39436340332031,-25.26751708984375,-43.97621154785156,2023-09-09 21:26:03.6120,1694312763.6120338,-0.05995789170265198,0.012736902572214603,-0.013157797046005726,-0.10604843497276306,-0.11735543608665466,-0.967926025390625,
0,2023-09-09 21:25:40.2710,03:07,10,1,2023-09-09 21:26:04.0710,1694312764.070791,-0.0009049421059899032,-0.0062309978529810905,-0.0029792783316224813,-0.043426513671875,0.018768310546875,-1.000274658203125,103.55355834960938,-25.361297607421875,-43.98710632324219,2023-09-09 21:26:03.7120,1694312763.711837,-0.10834406316280365,0.04261171072721481,-0.011259496212005615,-0.10285935550928116,-0.11184702068567276,-0.9910736083984375,
0,2023-09-09 21:25:40.2710,03:07,10,1,2023-09-09 21:26:04.1870,1694312764.187271,0.004412058740854263,-0.002766757970675826,-0.003382480936124921,-0.04315185546875,0.0146026611328125,-1.0006103515625,103.60116577148438,-25.393447875976562,-44.041046142578125,2023-09-09 21:26:03.8120,1694312763.811635,-0.013516755774617195,-0.0008372291922569275,-0.007341387681663036,-0.09263595193624496,-0.07052621245384216,-0.9776458740234375,
0,2023-09-09 21:25:40.2710,03:07,10,1,2023-09-09 21:26:04.2720,1694312764.272054,-0.007685350254178047,-0.010636133141815662,-0.001988049829378724,-0.042449951171875,0.018463134765625,-1.0016632080078125,103.60089111328125,-25.44537353515625,-43.75065612792969,2023-09-09 21:26:03.9110,1694312763.911477,-0.027780180796980858,-0.003217696212232113,0.015094712376594543,-0.09545884281396866,-0.06105050444602966,-0.994842529296875,
0,2023-09-09 21:25:40.2710,03:07,10,1,2023-09-09 21:26:04.3720,1694312764.3721719,-0.0002932140196207911,-0.0048919604159891605,-4.5273736759554595e-05,-0.043548583984375,0.016357421875,-1.0016632080078125,103.54496765136719,-25.368072509765625,-43.85997009277344,2023-09-09 21:26:04.0110,1694312764.0114388,0.012848205864429474,0.007435214705765247,-0.0029552611522376537,-0.10314926505088806,-0.06762704998254776,-0.9899139404296875,
0,2023-09-09 21:25:40.2710,03:07,10,1,2023-09-09 21:26:04.4710,1694312764.470869,0.0006689860601909459,-0.0009864348685368896,-0.0037268276792019606,-0.0394744873046875,0.0158538818359375,-0.9997406005859375,103.44908142089844,-25.362380981445312,-44.051361083984375,2023-09-09 21:26:04.1110,1694312764.1113548,-0.006593335419893265,0.014534803107380867,-0.004811783786863089,-0.09288009256124496,-0.06765756011009216,-0.9843902587890625,
0,2023-09-09 21:25:40.2710,03:07,10,1,2023-09-09 21:26:04.5710,1694312764.571022,-0.005074919667094946,-0.009303753264248371,-3.7017940485384315e-05,-0.043609619140625,0.016632080078125,-0.9996490478515625,103.44735717773438,-25.639923095703125,-43.807403564453125,2023-09-09 21:26:04.2110,1694312764.211055,-0.013706706464290619,-0.018078932538628578,0.0005099109839648008,-0.08561692386865616,-0.07795725017786026,-0.984161376953125,
0,2023-09-09 21:25:40.2710,03:07,10,1,2023-09-09 21:26:04.6730,1694312764.67267,-0.002885801251977682,-0.005250954534858465,-0.002304965863004327,-0.0407257080078125,0.017303466796875,-1.0003509521484375,103.47669982910156,-25.305343627929688,-43.7774658203125,2023-09-09 21:26:04.3110,1694312764.310848,0.0050948793068528175,-0.00596567802131176,0.004029710777103901,-0.10505661368370056,-0.03851327300071716,-0.9859465956687927,
0,2023-09-09 21:25:40.2710,03:07,10,1,2023-09-09 21:26:04.7710,1694312764.770887,0.00030306773260235786,-0.002436259761452675,-0.0018112158868461847,-0.03973388671875,0.0146331787109375,-0.999603271484375,103.67018127441406,-25.525634765625,-43.75758361816406,2023-09-09 21:26:04.4110,1694312764.4107609,-0.029626814648509026,-0.010602641850709915,-0.006551194004714489,-0.10000595450401306,-0.08184823393821716,-0.9831085205078125,
0,2023-09-09 21:25:40.2710,03:07,10,1,2023-09-09 21:26:04.8700,1694312764.870347,-0.004745220299810171,-0.004196076653897762,-0.0009408948244526982,-0.043487548828125,0.0172119140625,-1.001129150390625,103.67070007324219,-25.622817993164062,-43.86045837402344,2023-09-09 21:26:04.5110,1694312764.510562,-0.009250970557332039,0.0004864949733018875,0.0008844846161082387,-0.10047897696495056,-0.06694039702415466,-0.9889068603515625,
0,2023-09-09 21:25:40.2710,03:07,10,1,2023-09-09 21:26:04.9710,1694312764.9706511,-0.002823483431711793,-0.003953462466597557,-0.0025355955585837364,-0.0426483154296875,0.016204833984375,-1.0011138916015625,103.65451049804688,-25.5028076171875,-44.5615234375,2023-09-09 21:26:04.6100,1694312764.610343,0.007901185192167759,0.002462427131831646,0.004809418227523565,-0.09928878396749496,-0.047943200916051865,-0.9944915771484375,
0,2023-09-09 21:25:40.2710,03:07,10,1,2023-09-09 21:26:05.0700,1694312765.070421,0.0005547364708036184,-9.880327706923708e-05,-0.0019742012955248356,-0.0420989990234375,0.01800537109375,-0.9987945556640625,103.52583312988281,-25.628250122070312,-44.15301513671875,2023-09-09 21:26:04.7100,1694312764.710242,-0.003786297282204032,-0.008904876187443733,-0.004655489698052406,-0.10124191641807556,-0.06872567906975746,-0.986083984375,
0,2023-09-09 21:25:40.2710,03:07,10,1,2023-09-09 21:26:05.1850,1694312765.185058,-0.002888730727136135,-0.0015957661671563983,-0.001416269107721746,-0.0420684814453125,0.017547607421875,-1.0001983642578125,103.68069458007812,-25.337997436523438,-43.96142578125,2023-09-09 21:26:04.8100,1694312764.8100429,-0.006395596079528332,0.013744110241532326,-0.003422745503485203,-0.10523971170186996,-0.06695565208792686,-0.9877166152000427,
0,2023-09-09 21:25:40.2710,03:07,10,1,2023-09-09 21:26:05.2700,1694312765.270413,0.0003246393462177366,-0.004764128942042589,-0.0016924388473853469,-0.042999267578125,0.0169677734375,-1.0001068115234375,103.6776123046875,-25.638290405273438,-44.1639404296875,2023-09-09 21:26:04.9100,1694312764.909905,0.001857207389548421,0.015864385291934013,-0.0069327587261796,-0.10082992911338806,-0.06364449858665466,-0.9926300048828125,
0,2023-09-09 21:25:40.2710,03:07,10,1,2023-09-09 21:26:05.3730,1694312765.372696,-0.001401355373673141,-0.0020996362436562777,-0.0032924660481512547,-0.043731689453125,0.0154876708984375,-0.9990081787109375,103.61532592773438,-25.754135131835938,-43.96257019042969,2023-09-09 21:26:05.0100,1694312765.009723,0.01281604915857315,-0.015454254113137722,0.0013682147255167365,-0.10218796133995056,-0.04942330718040466,-0.9835968017578125,
0,2023-09-09 21:25:40.2710,03:07,10,1,2023-09-09 21:26:05.4710,1694312765.470783,-0.0012024171883240342,-0.006271744146943092,-0.0024828650057315826,-0.0429840087890625,0.0186767578125,-1.0006866455078125,103.66952514648438,-25.680389404296875,-43.93882751464844,2023-09-09 21:26:05.1100,1694312765.109779,0.002678526099771261,0.0017962376587092876,0.0016476800665259361,-0.09722886234521866,-0.06430062651634216,-0.9923095703125,
0,2023-09-09 21:25:40.2710,03:07,10,1,2023-09-09 21:26:05.5700,1694312765.570284,-0.002627741079777479,-0.002173938322812319,-0.002216815249994397,-0.04119873046875,0.0167999267578125,-0.999969482421875,103.62113952636719,-25.693283081054688,-43.59587097167969,2023-09-09 21:26:05.2090,1694312765.209409,0.019030602648854256,0.005680724512785673,0.0019214530475437641,-0.10258468985557556,-0.04844674468040466,-0.9922943115234375,
0,2023-09-09 21:25:40.2710,03:07,10,1,2023-09-09 21:26:05.6720,1694312765.671895,-0.0028280108235776424,-0.0033939324785023928,-0.004815527703613043,-0.042572021484375,0.0156097412109375,-1.0019378662109375,103.59808349609375,-25.391159057617188,-43.6739501953125,2023-09-09 21:26:05.3090,1694312765.309463,0.01117361057549715,-0.014037586748600006,-0.0006957019213587046,-0.09857162833213806,-0.06306466832756996,-0.989501953125,
0,2023-09-09 21:25:40.2710,03:07,10,1,2023-09-09 21:26:05.7710,1694312765.7706962,-0.00015925703337416053,-0.004174504894763231,-0.001781921018846333,-0.043792724609375,0.015380859375,-1.0015869140625,103.755615234375,-25.745834350585938,-43.92549133300781,2023-09-09 21:26:05.4090,1694312765.409148,0.007028866559267044,0.0058909812942147255,0.002065496752038598,-0.10411056876182556,-0.05303964018821716,-0.9880676865577698,
0,2023-09-09 21:25:40.2710,03:07,10,1,2023-09-09 21:26:05.8710,1694312765.8709168,-0.004244279582053423,-0.0013989584986120462,-0.003561445279046893,-0.042694091796875,0.015167236328125,-1.0014495849609375,103.64897155761719,-25.466293334960938,-43.49382019042969,2023-09-09 21:26:05.5090,1694312765.508963,-0.019428838044404984,-0.007317765615880489,-0.0035742793697863817,-0.09185776114463806,-0.07374581694602966,-0.9828948974609375,
0,2023-09-09 21:25:40.2710,03:07,10,1,2023-09-09 21:26:05.9730,1694312765.972673,-0.000892691605258733,-0.00367143377661705,-0.0043992758728563786,-0.040679931640625,0.0152130126953125,-1.0012359619140625,103.49481201171875,-25.615249633789062,-43.892486572265625,2023-09-09 21:26:05.6090,1694312765.608813,-0.0095984460785985,0.016978785395622253,0.003377036890015006,-0.11077865958213806,-0.06394967436790466,-0.9863587021827698,
0,2023-09-09 21:25:40.2710,03:07,10,1,2023-09-09 21:26:06.0730,1694312766.0726151,-0.0032410670537501574,-0.0034533210564404726,-0.001648496720008552,-0.04351806640625,0.0172119140625,-1.0009918212890625,103.61349487304688,-25.405685424804688,-43.89564514160156,2023-09-09 21:26:05.7090,1694312765.708646,-0.012148955836892128,-0.01122861634939909,0.0019739505369216204,-0.09741195291280746,-0.06843575462698936,-0.9847258925437927,
0,2023-09-09 21:25:40.2710,03:07,10,1,2023-09-09 21:26:06.1820,1694312766.182472,-0.0025273398496210575,-0.002108957152813673,-0.003063966752961278,-0.04351806640625,0.016876220703125,-0.99969482421875,103.70166015625,-25.640106201171875,-43.895721435546875,2023-09-09 21:26:05.8080,1694312765.808435,0.01032645907253027,-0.0015726611018180847,0.000662110629491508,-0.09899887442588806,-0.04016122221946716,-0.993682861328125,
0,2023-09-09 21:25:40.2710,03:07,10,1,2023-09-09 21:26:06.2710,1694312766.271101,-0.0004644552827812731,-0.005647765472531319,-0.004116714466363192,-0.0417938232421875,0.017425537109375,-1.0010986328125,103.76698303222656,-25.836761474609375,-43.64906311035156,2023-09-09 21:26:05.9080,1694312765.908293,-0.0014409178402274847,0.005116799846291542,0.0016276065725833178,-0.10104355216026306,-0.06195077300071716,-0.9925994873046875,
0,2023-09-09 21:25:40.2710,03:07,10,1,2023-09-09 21:26:06.3710,1694312766.370642,0.002270078519359231,-0.002341451123356819,-0.0020823257509618998,-0.0413360595703125,0.0159759521484375,-1.0005035400390625,103.69322204589844,-25.876785278320312,-43.941070556640625,2023-09-09 21:26:06.0080,1694312766.008144,-0.0023167647887021303,0.008872256614267826,0.003869422245770693,-0.10675033181905746,-0.06196603178977966,-0.994293212890625,
0,2023-09-09 21:25:40.2710,03:07,10,1,2023-09-09 21:26:06.4710,1694312766.471068,-0.0016562198288738728,-0.008236624300479889,-0.000800279900431633,-0.043182373046875,0.0163116455078125,-1.00201416015625,103.72877502441406,-25.669677734375,-43.93382263183594,2023-09-09 21:26:06.1080,1694312766.108144,0.016839751973748207,0.0018375166691839695,0.0017027409048750997,-0.10203537344932556,-0.06068429723381996,-0.9920501708984375,
0,2023-09-09 21:25:40.2710,03:07,10,1,2023-09-09 21:26:06.5710,1694312766.570835,0.0037111148703843355,-0.0026724820490926504,-0.0006146575906313956,-0.0433197021484375,0.016204833984375,-1.0009918212890625,103.68649291992188,-25.630599975585938,-44.15119934082031,2023-09-09 21:26:06.2080,1694312766.2078319,-0.003568650223314762,0.006321614142507315,0.0005569490604102612,-0.09841904044151306,-0.06544503569602966,-0.9854583740234375,
0,2023-09-09 21:25:40.2710,03:07,10,1,2023-09-09 21:26:06.6720,1694312766.6721292,-0.0005310343112796545,-0.003736681304872036,-0.0020069582387804985,-0.0440216064453125,0.016937255859375,-0.9993133544921875,103.65507507324219,-25.57562255859375,-44.45159912109375,2023-09-09 21:26:06.3080,1694312766.307667,-0.010971838608384132,-0.011639543808996677,0.0008800572832114995,-0.09297165274620056,-0.06892403960227966,-0.9838104248046875,
0,2023-09-09 21:25:40.2710,03:07,10,1,2023-09-09 21:26:06.7720,1694312766.772115,-0.004403803031891584,-0.0030599720776081085,-0.0021702100057154894,-0.0414886474609375,0.017913818359375,-1.0007171630859375,103.49020385742188,-25.595306396484375,-44.38682556152344,2023-09-09 21:26:06.4080,1694312766.407526,0.00010458123870193958,0.012438761070370674,-0.00047153024934232235,-0.10581956058740616,-0.05809029936790466,-0.9881439208984375,
0,2023-09-09 21:25:40.2710,03:07,10,1,2023-09-09 21:26:06.8730,1694312766.8726811,-0.0022863238118588924,-0.0036218990571796894,-0.0044139232486486435,-0.04022216796875,0.0160675048828125,-1.0000762939453125,103.69677734375,-25.540725708007812,-43.73704528808594,2023-09-09 21:26:06.5070,1694312766.507287,-0.015479505062103271,5.626119673252106e-05,-0.0015809698961675167,-0.10055527091026306,-0.06494149565696716,-0.9889373779296875,
0,2023-09-09 21:25:40.2710,03:07,10,1,2023-09-09 21:26:06.9720,1694312766.9715362,-0.0023331954143941402,-0.006191849708557129,-0.0006836334359832108,-0.0426177978515625,0.0166168212890625,-1.0005340576171875,103.61572265625,-25.517974853515625,-43.87513732910156,2023-09-09 21:26:06.6070,1694312766.607285,-0.022129151970148087,-0.005798964761197567,0.0006776570808142424,-0.09753403067588806,-0.06529244780540466,-0.9851226806640625,
0,2023-09-09 21:25:40.2710,03:07,10,1,2023-09-09 21:26:07.0850,1694312767.084615,-0.002170742489397526,-0.003291134489700198,-0.003376355627551675,-0.0434417724609375,0.0156097412109375,-0.99932861328125,103.68064880371094,-25.457809448242188,-44.192596435546875,2023-09-09 21:26:06.7070,1694312766.7069879,-0.0166524276137352,0.0003032693639397621,-0.001664160517975688,-0.09704574197530746,-0.056442346423864365,-0.98565673828125,
0,2023-09-09 21:25:40.2710,03:07,10,1,2023-09-09 21:26:07.1830,1694312767.182582,-0.00324852392077446,-0.004326038993895054,-0.0027798074297606945,-0.03961181640625,0.01751708984375,-0.9979400634765625,103.68376159667969,-25.7191162109375,-44.025787353515625,2023-09-09 21:26:06.8070,1694312766.806807,0.008572900667786598,-0.005151150748133659,-0.001973553095012903,-0.10017380118370056,-0.05293282866477966,-0.9889373779296875,
0,2023-09-09 21:25:40.2710,03:07,10,1,2023-09-09 21:26:07.2710,1694312767.270746,0.00044607947347685695,-0.011165834963321686,-0.00256435782648623,-0.0430450439453125,0.0158233642578125,-1.0023040771484375,103.58619689941406,-25.533920288085938,-43.734283447265625,2023-09-09 21:26:06.9070,1694312766.906723,-0.011656337417662144,0.0029528485611081123,0.0009405442397110164,-0.10421738028526306,-0.06831368803977966,-0.9841766357421875,
0,2023-09-09 21:25:40.2710,03:07,10,1,2023-09-09 21:26:07.3710,1694312767.370692,-0.00038242992013692856,-0.0015933692920953035,-0.0035510589368641376,-0.04400634765625,0.0156707763671875,-1.0021820068359375,103.59567260742188,-25.644729614257812,-43.7646484375,2023-09-09 21:26:07.0070,1694312767.006572,-0.002989346394315362,0.010304505005478859,0.0002308116527274251,-0.10694871097803116,-0.05136117339134216,-1.0015716552734375,
0,2023-09-09 21:25:40.2710,03:07,10,1,2023-09-09 21:26:07.4700,1694312767.4703841,-0.0014602112350985408,-0.004756938200443983,-0.0020367854740470648,-0.041534423828125,0.0161285400390625,-1.001373291015625,103.61833190917969,-25.600341796875,-43.7418212890625,2023-09-09 21:26:07.1070,1694312767.1065412,-0.0035723119508475065,0.008183030411601067,0.001882237964309752,-0.10032638907432556,-0.06167611852288246,-0.9849395751953125,
0,2023-09-09 21:25:40.2710,03:07,10,1,2023-09-09 21:26:07.5830,1694312767.583235,-0.0028551749419420958,-0.0054914383217692375,-0.0011294466676190495,-0.042510986328125,0.017303466796875,-0.9987945556640625,103.7633056640625,-25.5032958984375,-43.56866455078125,2023-09-09 21:26:07.2060,1694312767.206406,0.023036859929561615,0.014403242617845535,0.00130929215811193,-0.10684189200401306,-0.05764779448509216,-0.991668701171875,
0,2023-09-09 21:25:40.2710,03:07,10,1,2023-09-09 21:26:07.6710,1694312767.670738,-0.00424135010689497,-0.003781422507017851,-0.00452790642157197,-0.041961669921875,0.0157318115234375,-1.00115966796875,103.79959106445312,-25.705123901367188,-43.550140380859375,2023-09-09 21:26:07.3060,1694312767.306051,-0.0013052963186055422,0.008997425436973572,-0.0018045755568891764,-0.10708602517843246,-0.059570398181676865,-0.9903106093406677,
0,2023-09-09 21:25:40.2710,03:07,10,1,2023-09-09 21:26:07.7860,1694312767.786178,-0.0015414375811815262,-0.002912432886660099,-0.002813895931467414,-0.0435638427734375,0.01513671875,-1.001312255859375,103.83184814453125,-25.840087890625,-42.98783874511719,2023-09-09 21:26:07.4060,1694312767.405925,0.01603967323899269,0.0036110486835241318,-0.0014385576359927654,-0.10182175040245056,-0.055557336658239365,-0.9913176894187927,
0,2023-09-09 21:25:40.2710,03:07,10,1,2023-09-09 21:26:07.8710,1694312767.870584,-0.002014415105804801,-0.0059692091308534145,-0.004945223685353994,-0.0434417724609375,0.01580810546875,-1.0019378662109375,103.83262634277344,-25.8385009765625,-43.49964904785156,2023-09-09 21:26:07.5060,1694312767.505749,0.013851486146450043,0.004386561457067728,0.004104080144315958,-0.09951767325401306,-0.04437265172600746,-0.997161865234375,
0,2023-09-09 21:25:40.2710,03:07,10,1,2023-09-09 21:26:07.9710,1694312767.971424,0.0007550061563961208,-0.003531884169206023,-0.0031529164407402277,-0.0436553955078125,0.0173797607421875,-1.001373291015625,103.59637451171875,-25.481109619140625,-44.0372314453125,2023-09-09 21:26:07.6060,1694312767.6055388,0.013132832013070583,-0.004656202159821987,0.0036888266913592815,-0.09609971195459366,-0.05000314489006996,-0.993377685546875,
0,2023-09-09 21:25:40.2710,03:07,10,1,2023-09-09 21:26:08.0820,1694312768.082285,-0.002086054068058729,-0.0027180220931768417,-0.0029973878990858793,-0.042083740234375,0.01727294921875,-1.001007080078125,103.90785217285156,-25.836532592773438,-43.488739013671875,2023-09-09 21:26:07.7050,1694312767.705439,0.027864772826433182,0.013143301010131836,0.007013050839304924,-0.10752853006124496,-0.03160104155540466,-1.0010528564453125,
