SessionID,SessionDate,SessionDuration,SessionFrequency,RecordID,Timestamp,timeIntervalSince1970,GyroX,GyroY,GyroZ,AccX,AccY,AccZ,MagX,MagY,MagZ,WatchTimestamp,WatchtImeIntervalSince1970,WatchGyroX,WatchGyroY,WatchGyroZ,WatchAccX,WatchAccY,WatchAccZ
0,2023-09-09 15:44:04.2080,01:35,10,1,2023-09-09 15:44:04.3240,1694292244.323915,0.001660480978898704,-0.001546763931401074,-0.004023503512144089,0.0174102783203125,0.0022735595703125,-1.001220703125,104.47830200195312,-24.545303344726562,-38.80059814453125,2023-09-09 15:44:03.8790,1694292243.878999,-0.04682357609272003,0.03472428023815155,0.04044115170836449,-0.0796050876379013,-0.2994079291820526,-0.9650725722312927,
0,2023-09-09 15:44:04.2080,01:35,10,1,2023-09-09 15:44:04.4080,1694292244.4082022,0.001660480978898704,-0.001546763931401074,-0.004023503512144089,0.0176849365234375,0.00146484375,-1.000579833984375,104.47830200195312,-24.545303344726562,-38.80059814453125,2023-09-09 15:44:04.0100,1694292244.009701,0.007595723494887352,0.05122043192386627,0.01656511425971985,-0.0923919528722763,-0.3028258979320526,-0.9501647353172302,
0,2023-09-09 15:44:04.2080,01:35,10,1,2023-09-09 15:44:04.5210,1694292244.521395,-0.0002719087351579219,-0.0032583775464445353,-0.0046160570345819,0.0182342529296875,0.002532958984375,-1.0008544921875,104.55532836914062,-24.641372680664062,-37.80438232421875,2023-09-09 15:44:04.0750,1694292244.074613,0.08730799704790115,0.06111966818571091,0.003255501389503479,-0.1033172532916069,-0.3033141791820526,-0.9391173720359802,
0,2023-09-09 15:44:04.2080,01:35,10,1,2023-09-09 15:44:04.6080,1694292244.608125,-0.0002719087351579219,-0.0032583775464445353,-0.0046160570345819,0.018951416015625,0.0008087158203125,-1.0022125244140625,104.55532836914062,-24.641372680664062,-37.80438232421875,2023-09-09 15:44:04.1750,1694292244.1746259,0.06184624508023262,0.035815510898828506,-0.01119078230112791,-0.0983886644244194,-0.2890472412109375,-0.9267730712890625,
0,2023-09-09 15:44:04.2080,01:35,10,1,2023-09-09 15:44:04.7220,1694292244.7223701,-0.0013614079216495156,-0.0062155514024198055,-0.0018991001415997744,0.0184173583984375,0.00146484375,-1.001922607421875,104.6719970703125,-24.595611572265625,-38.30284118652344,2023-09-09 15:44:04.2740,1694292244.274472,0.060371387749910355,0.0022484958171844482,0.054404206573963165,-0.0935516357421875,-0.2857208251953125,-0.9309234619140625,
0,2023-09-09 15:44:04.2080,01:35,10,1,2023-09-09 15:44:04.8220,1694292244.82183,-0.00177952426020056,-0.004984905011951923,-0.00029081720276735723,0.0181884765625,0.00189208984375,-1.0016021728515625,104.46823120117188,-24.593582153320312,-38.305206298828125,2023-09-09 15:44:04.3740,1694292244.3741941,0.02342388965189457,0.008403859101235867,0.01658512093126774,-0.1029052734375,-0.294097900390625,-0.9413604736328125,
0,2023-09-09 15:44:04.2080,01:35,10,1,2023-09-09 15:44:04.9080,1694292244.908463,-0.00177952426020056,-0.004984905011951923,-0.00029081720276735723,0.0181732177734375,0.00286865234375,-1.0000457763671875,104.58511352539062,-24.652740478515625,-38.066375732421875,2023-09-09 15:44:04.4740,1694292244.4740071,-0.03477064147591591,0.015002507716417313,-0.054197605699300766,-0.1034087985754013,-0.3102569580078125,-0.9459380507469177,
0,2023-09-09 15:44:04.2080,01:35,10,1,2023-09-09 15:44:05.0090,1694292245.0094562,-0.002570216776803136,-0.0046701193787157536,-0.0027023095171898603,0.017852783203125,0.0025787353515625,-1.001190185546875,104.48707580566406,-24.63348388671875,-38.96681213378906,2023-09-09 15:44:04.5740,1694292244.5740008,0.04598931968212128,-0.036140572279691696,-0.07124149799346924,-0.095611572265625,-0.2923278510570526,-0.9509124755859375,
0,2023-09-09 15:44:04.2080,01:35,10,1,2023-09-09 15:44:05.1100,1694292245.1097522,-0.002918824553489685,-0.002912699244916439,-0.001526257605291903,0.017913818359375,0.002044677734375,-1.0007476806640625,104.58528137207031,-24.691696166992188,-38.34770202636719,2023-09-09 15:44:04.6740,1694292244.67381,0.007924024015665054,-0.05341876298189163,-0.0392397940158844,-0.0867309495806694,-0.28814697265625,-0.957366943359375,
0,2023-09-09 15:44:04.2080,01:35,10,1,2023-09-09 15:44:05.2100,1694292245.209999,-0.0020394488237798214,-0.0054128747433424,-0.002429868094623089,0.017822265625,0.0026092529296875,-1.00042724609375,104.31486511230469,-24.425537109375,-40.16093444824219,2023-09-09 15:44:04.7730,1694292244.773493,-0.03578570485115051,-0.027944695204496384,-0.06244281679391861,-0.089813232421875,-0.3003387451171875,-0.94891357421875,
0,2023-09-09 15:44:04.2080,01:35,10,1,2023-09-09 15:44:05.3090,1694292245.309438,0.0015787219163030386,-0.006486129015684128,-0.002746784361079335,0.0182952880859375,0.0008392333984375,-1.0002899169921875,104.22802734375,-24.134445190429688,-40.22013854980469,2023-09-09 15:44:04.8740,1694292244.8737621,-0.037301644682884216,-0.028056148439645767,-0.045031704008579254,-0.09442138671875,-0.3003997802734375,-0.9456634521484375,
0,2023-09-09 15:44:04.2080,01:35,10,1,2023-09-09 15:44:05.4100,1694292245.409764,0.00035206988104619086,-0.0023792681749910116,-0.0009158611064776778,0.0184326171875,0.0011749267578125,-1.000701904296875,104.25862121582031,-24.163970947265625,-40.068359375,2023-09-09 15:44:04.9730,1694292244.973367,-0.1019803062081337,-0.025833338499069214,-0.15760083496570587,-0.136627197265625,-0.3169402778148651,-0.9367218017578125,
0,2023-09-09 15:44:04.2080,01:35,10,1,2023-09-09 15:44:05.5090,1694292245.509445,-0.0015097459545359015,-0.004107659682631493,-0.0017278589075431228,0.01837158203125,0.00152587890625,-1.0006561279296875,104.37504577636719,-24.39013671875,-39.864227294921875,2023-09-09 15:44:05.0730,1694292245.073283,-0.10313871502876282,-0.06263356655836105,-0.32458972930908203,-0.1233215257525444,-0.3213653564453125,-0.927215576171875,
0,2023-09-09 15:44:04.2080,01:35,10,1,2023-09-09 15:44:05.6100,1694292245.609733,-5.5393749789800495e-05,-0.0044107274152338505,-0.0011028150329366326,0.0181121826171875,0.0018310546875,-1.0006866455078125,104.23800659179688,-24.313323974609375,-40.116607666015625,2023-09-09 15:44:05.1730,1694292245.1732411,-0.04737085476517677,-0.15536737442016602,-0.28973954916000366,-0.0745849534869194,-0.302001953125,-0.9389190673828125,
0,2023-09-09 15:44:04.2080,01:35,10,1,2023-09-09 15:44:05.7100,1694292245.7095098,-0.0010239854454994202,-0.0029406624380499125,-0.001787779969163239,0.0182952880859375,0.001556396484375,-1.0009307861328125,104.28730773925781,-24.378005981445312,-40.08453369140625,2023-09-09 15:44:05.2730,1694292245.27284,0.13049840927124023,-0.11035901308059692,-0.164737269282341,-0.059814453125,-0.295013427734375,-0.994476318359375,
0,2023-09-09 15:44:04.2080,01:35,10,1,2023-09-09 15:44:05.8110,1694292245.810504,-0.000483363721286878,-0.004531368613243103,-0.0014793860027566552,0.01788330078125,0.0019683837890625,-1.0002593994140625,104.4005126953125,-24.3699951171875,-39.94261169433594,2023-09-09 15:44:05.3730,1694292245.3727279,-0.2803313434123993,-0.012320327572524548,-0.42249032855033875,-0.1773986741900444,-0.2565460205078125,-0.8625640869140625,
0,2023-09-09 15:44:04.2080,01:35,10,1,2023-09-09 15:44:05.9100,1694292245.9095511,-0.0008889631717465818,-0.005071723833680153,-0.0018604843644425273,0.0184326171875,0.0020904541015625,-0.999664306640625,104.32540893554688,-24.084365844726562,-40.19268798828125,2023-09-09 15:44:05.4720,1694292245.472443,-1.0576399564743042,0.15215171873569489,-1.2565017938613892,-0.2709197849035263,-0.3168487697839737,-0.8856810927391052,
0,2023-09-09 15:44:04.2080,01:35,10,1,2023-09-09 15:44:06.0100,1694292246.009879,0.0012889700010418892,-0.005631520412862301,-0.0007265103631652892,0.0178070068359375,0.001708984375,-1.0007476806640625,104.39215087890625,-24.152999877929688,-40.3399658203125,2023-09-09 15:44:05.5730,1694292245.572647,-1.4938117265701294,0.16405031085014343,-2.413378953933716,-0.21495054475963116,-0.1914367824792862,-0.8924407362937927,
0,2023-09-09 15:44:04.2080,01:35,10,1,2023-09-09 15:44:06.1100,1694292246.10956,-0.0016245282022282481,-0.004501274786889553,-0.002924683503806591,0.018951416015625,0.00146484375,-0.999664306640625,104.17570495605469,-24.191940307617188,-40.16053771972656,2023-09-09 15:44:05.6720,1694292245.6724892,-0.7633381485939026,-0.21957218647003174,-2.7443158626556396,-0.07852170988917351,-0.03141787648200989,-0.9599761366844177,
0,2023-09-09 15:44:04.2080,01:35,10,1,2023-09-09 15:44:06.2100,1694292246.209567,-0.002183525823056698,-0.003216033335775137,-0.0007917577750049531,0.0187530517578125,0.0020294189453125,-1.000152587890625,104.22627258300781,-24.21173095703125,-39.82667541503906,2023-09-09 15:44:05.7720,1694292245.771879,-1.9369499683380127,-0.21237164735794067,-1.9154491424560547,-0.031539883464574814,0.08604427054524422,-1.078155517578125,
0,2023-09-09 15:44:04.2080,01:35,10,1,2023-09-09 15:44:06.3100,1694292246.309684,-0.0019627497531473637,-0.0027105652261525393,-0.0016519587952643633,0.018218994140625,0.0017852783203125,-1.0006103515625,104.34660339355469,-24.431381225585938,-39.40814208984375,2023-09-09 15:44:05.8720,1694292245.871877,-0.33913373947143555,-0.0568477138876915,-0.8532329201698303,0.5555572863668203,0.48631277680397034,-1.2547607421875,
0,2023-09-09 15:44:04.2080,01:35,10,1,2023-09-09 15:44:06.4100,1694292246.409641,-0.0025249430909752846,-0.005943376570940018,-0.002695385366678238,0.018218994140625,0.0017852783203125,-1.0006103515625,104.29144287109375,-24.299728393554688,-39.547210693359375,2023-09-09 15:44:05.9720,1694292245.9717479,-0.054261185228824615,-0.05396737530827522,-0.35481739044189453,0.022033723071217537,0.07313530147075653,-0.8722076416015625,
0,2023-09-09 15:44:04.2080,01:35,10,1,2023-09-09 15:44:06.5090,1694292246.5094829,-0.0005318332696333528,-0.0041278996504843235,-0.0028519791085273027,0.017974853515625,0.002227783203125,-1.00091552734375,104.41123962402344,-24.296493530273438,-39.762725830078125,2023-09-09 15:44:06.0720,1694292246.071641,-2.7623531818389893,0.4912606477737427,-0.07965049892663956,0.008331332355737686,0.515762209892273,-1.1219635009765625,
0,2023-09-09 15:44:04.2080,01:35,10,1,2023-09-09 15:44:06.6100,1694292246.609541,-0.0007904262165538967,-0.003038400551304221,-0.0032858080230653286,0.0182037353515625,0.0016021728515625,-1.00030517578125,104.41285705566406,-24.477188110351562,-39.57887268066406,2023-09-09 15:44:06.1720,1694292246.1715112,-0.28116080164909363,0.07879626750946045,-0.005738292820751667,-0.03094479814171791,0.35990896821022034,-0.8487702012062073,
0,2023-09-09 15:44:04.2080,01:35,10,1,2023-09-09 15:44:06.7100,1694292246.709693,-0.0010314423125237226,-0.004680505488067865,-0.00230842805467546,0.0185546875,0.0022125244140625,-1.0008544921875,104.38340759277344,-24.248703002929688,-40.0433349609375,2023-09-09 15:44:06.2720,1694292246.271585,-0.94729083776474,0.4052808880805969,0.13227470219135284,-0.10377499647438526,0.43725576996803284,-0.8808441758155823,
0,2023-09-09 15:44:04.2080,01:35,10,1,2023-09-09 15:44:06.8100,1694292246.809618,-0.0018570221727713943,-0.004827778320759535,-0.003707386553287506,0.0176239013671875,0.0009613037109375,-1.000579833984375,104.25503540039062,-24.074691772460938,-39.81590270996094,2023-09-09 15:44:06.3710,1694292246.37098,0.5279073119163513,0.6126190423965454,0.3185746371746063,-0.054779039695858955,0.6070708632469177,-0.9300690293312073,
0,2023-09-09 15:44:04.2080,01:35,10,1,2023-09-09 15:44:06.9100,1694292246.909579,0.0017955031944438815,-0.0063037024810910225,-0.0023941819090396166,0.0187225341796875,0.00189208984375,-1.0007781982421875,104.34344482421875,-24.363571166992188,-39.92413330078125,2023-09-09 15:44:06.4710,1694292246.470927,0.17997108399868011,-0.31473010778427124,-0.1587420552968979,0.08598329871892929,0.3614043593406677,-0.9017791748046875,
0,2023-09-09 15:44:04.2080,01:35,10,1,2023-09-09 15:44:07.0100,1694292247.010006,3.6751622246811166e-05,-0.002828543307259679,-0.0031348068732768297,0.017669677734375,0.0016326904296875,-0.9998016357421875,104.53074645996094,-24.425537109375,-39.80494689941406,2023-09-09 15:44:06.5710,1694292246.57099,-0.5015655159950256,-0.35967308282852173,-0.14953450858592987,0.009490999393165112,0.4360808730125427,-0.8752288818359375,
0,2023-09-09 15:44:04.2080,01:35,10,1,2023-09-09 15:44:07.1100,1694292247.109561,0.0011225224006921053,-0.0051681301556527615,-0.0009209210984408855,0.017913818359375,0.002197265625,-1.000518798828125,104.3447265625,-24.567581176757812,-39.72479248046875,2023-09-09 15:44:06.6710,1694292246.670864,0.12531688809394836,-0.03272160887718201,-0.12401802837848663,-0.13885494880378246,0.5653990507125854,-0.8402557373046875,
0,2023-09-09 15:44:04.2080,01:35,10,1,2023-09-09 15:44:07.2090,1694292247.209066,-0.0005198490689508617,-0.004384894855320454,-0.0028911277186125517,0.01824951171875,0.0018768310546875,-1.0006103515625,104.31474304199219,-24.424972534179688,-39.723175048828125,2023-09-09 15:44:06.7710,1694292246.770547,0.5230609178543091,-0.03882317245006561,0.0123639777302742,-0.014770466834306717,0.49894705414772034,-0.8697662353515625,
0,2023-09-09 15:44:04.2080,01:35,10,1,2023-09-09 15:44:07.3090,1694292247.309472,-0.0043769050389528275,-0.0016554208705201745,-0.0006050702068023384,0.0181121826171875,0.002410888671875,-1.0005340576171875,104.31651306152344,-24.52142333984375,-39.72344970703125,2023-09-09 15:44:06.8700,1694292246.870277,-0.13298822939395905,-0.10335542261600494,-0.052945684641599655,0.011795086786150932,0.3873900771141052,-0.8672027587890625,
0,2023-09-09 15:44:04.2080,01:35,10,1,2023-09-09 15:44:07.4100,1694292247.409534,0.0002902845444623381,-0.005149221979081631,-0.0009265137487091124,0.01824951171875,0.0017852783203125,-1.0007476806640625,104.30381774902344,-24.25775146484375,-39.60490417480469,2023-09-09 15:44:06.9700,1694292246.970127,-0.05483502894639969,0.013544692657887936,0.04806039109826088,-0.048492396250367165,0.4523772597312927,-0.8901519775390625,
0,2023-09-09 15:44:04.2080,01:35,10,1,2023-09-09 15:44:07.5100,1694292247.509859,-0.0023784691002219915,-0.005506617948412895,-0.003510312642902136,0.01824951171875,0.0016937255859375,-1.0001678466796875,104.30877685546875,-24.51605224609375,-39.57499694824219,2023-09-09 15:44:07.0700,1694292247.070024,-0.06426941603422165,1.0774470865726471e-05,0.02172752097249031,-0.0017394758760929108,0.4521788954734802,-0.8872528076171875,
0,2023-09-09 15:44:04.2080,01:35,10,1,2023-09-09 15:44:07.6100,1694292247.6096349,0.00025513084256090224,-0.004907673224806786,-0.003424825146794319,0.018096923828125,0.0019073486328125,-1.0012664794921875,104.14924621582031,-24.280181884765625,-39.2381591796875,2023-09-09 15:44:07.1700,1694292247.1698298,-0.01720522902905941,-0.022765643894672394,0.026448504999279976,-0.013946503400802612,0.46791067719459534,-0.8813018798828125,
0,2023-09-09 15:44:04.2080,01:35,10,1,2023-09-09 15:44:07.7090,1694292247.709455,-0.000434361572843045,-0.0054826498962938786,0.0001536643976578489,0.0182952880859375,0.0027923583984375,-1.000732421875,104.41688537597656,-24.381973266601562,-39.26216125488281,2023-09-09 15:44:07.2700,1694292247.26966,-0.02512979879975319,-0.005884265527129173,0.009238126687705517,-0.008361782878637314,0.48542776703834534,-0.88134765625,
0,2023-09-09 15:44:04.2080,01:35,10,1,2023-09-09 15:44:07.8100,1694292247.809571,-0.0009574064170010388,-0.003972637467086315,-0.0019441075855866075,0.018585205078125,0.0020599365234375,-1.0005950927734375,104.22358703613281,-24.350936889648438,-39.304931640625,2023-09-09 15:44:07.3690,1694292247.3694391,-0.014898599125444889,-0.006539936177432537,0.003251540008932352,-0.013488737866282463,0.46902456879615784,-0.8814238905906677,
0,2023-09-09 15:44:04.2080,01:35,10,1,2023-09-09 15:44:07.9090,1694292247.9094958,0.0009733853512443602,-0.004697283264249563,-0.0033220271579921246,0.0182647705078125,0.0013275146484375,-1.001312255859375,104.34716796875,-24.2716064453125,-39.05584716796875,2023-09-09 15:44:07.4690,1694292247.469339,0.01375015638768673,-0.027713533490896225,-0.0061971223913133144,-0.01606748066842556,0.46240222454071045,-0.8827667236328125,
0,2023-09-09 15:44:04.2080,01:35,10,1,2023-09-09 15:44:08.0100,1694292248.009676,-0.0002247707889182493,-0.0037888791412115097,-0.0024471788201481104,0.01776123046875,0.00177001953125,-1.0020294189453125,104.34623718261719,-24.327301025390625,-39.68669128417969,2023-09-09 15:44:07.5690,1694292247.569226,0.04709406569600105,-0.013550707139074802,0.0009638180490583181,-0.020461995154619217,0.47541797161102295,-0.87835693359375,
0,2023-09-09 15:44:04.2080,01:35,10,1,2023-09-09 15:44:08.1090,1694292248.109323,-0.001258876291103661,2.4767397917457856e-05,-0.001136637176387012,0.0181732177734375,0.0026092529296875,-1.0012969970703125,104.3399658203125,-24.476943969726562,-39.56288146972656,2023-09-09 15:44:07.6690,1694292247.668984,0.014780066907405853,-0.026585284620523453,-0.01352204754948616,-0.024307215586304665,0.45922842621803284,-0.8827972412109375,
0,2023-09-09 15:44:04.2080,01:35,10,1,2023-09-09 15:44:08.2100,1694292248.20954,-0.0022154836915433407,-0.0041406829841434956,-0.004326038993895054,0.0184173583984375,0.00262451171875,-1.0016937255859375,104.42189025878906,-24.580459594726562,-39.30952453613281,2023-09-09 15:44:07.7690,1694292247.7690248,0.008010776713490486,-0.011364119127392769,0.003666027681902051,-0.023193320259451866,0.46725454926490784,-0.882965087890625,
0,2023-09-09 15:44:04.2080,01:35,10,1,2023-09-09 15:44:08.3090,1694292248.309188,0.000595216522924602,-0.005083708092570305,-0.004449876025319099,0.0187530517578125,0.0019989013671875,-1.001190185546875,104.31771850585938,-24.4541015625,-39.550567626953125,2023-09-09 15:44:07.8690,1694292247.868597,0.01040735561400652,0.0037162969820201397,-0.0025798839051276445,-0.027343716472387314,0.4588927626609802,-0.8832398056983948,
0,2023-09-09 15:44:04.2080,01:35,10,1,2023-09-09 15:44:08.4090,1694292248.409255,0.0001627191377338022,-0.003954527899622917,-0.0008191883680410683,0.018646240234375,0.001617431640625,-1.0013885498046875,104.31672668457031,-24.49072265625,-39.42268371582031,2023-09-09 15:44:07.9680,1694292247.96846,-0.036917150020599365,0.013382771983742714,0.010549433529376984,-0.024978607892990112,0.44799795746803284,-0.88543701171875,
0,2023-09-09 15:44:04.2080,01:35,10,1,2023-09-09 15:44:08.5100,1694292248.50955,0.0011944277212023735,-0.005784918554127216,-0.004740426782518625,0.0179443359375,0.0021820068359375,-1.000518798828125,104.31607055664062,-24.421051025390625,-39.185089111328125,2023-09-09 15:44:08.0680,1694292248.068295,0.008448000997304916,-0.001176862046122551,-0.0024393689818680286,-0.022140461951494217,0.45732107758522034,-0.8824920654296875,
0,2023-09-09 15:44:04.2080,01:35,10,1,2023-09-09 15:44:08.6100,1694292248.609511,0.00041625206358730793,-0.0034791536163538694,-0.002376871183514595,0.018463134765625,0.00177001953125,-1.0004730224609375,104.58296203613281,-24.363418579101562,-39.3848876953125,2023-09-09 15:44:08.1680,1694292248.16826,0.00281528290361166,0.0029401183128356934,0.0035827707033604383,-0.024703942239284515,0.4599608778953552,-0.8853912353515625,
0,2023-09-09 15:44:04.2080,01:35,10,1,2023-09-09 15:44:08.7100,1694292248.709601,-0.0022738068364560604,-0.0044173854403197765,-0.0037729002069681883,0.017791748046875,0.0018768310546875,-1.0008087158203125,104.3291015625,-24.503570556640625,-39.284942626953125,2023-09-09 15:44:08.2680,1694292248.267922,0.010897377505898476,-0.007484959438443184,-0.0032063922844827175,-0.014480547979474068,0.46957388520240784,-0.882843017578125,
0,2023-09-09 15:44:04.2080,01:35,10,1,2023-09-09 15:44:08.8090,1694292248.809475,-0.0010487528052181005,-0.0034533210564404726,-0.0052267201244831085,0.0181884765625,0.001800537109375,-1.0005645751953125,104.20530700683594,-24.438507080078125,-39.13525390625,2023-09-09 15:44:08.3680,1694292248.3677669,-0.03610508516430855,0.0113133629783988,0.007005398627370596,-0.027877764776349068,0.45141592621803284,-0.8839569687843323,
0,2023-09-09 15:44:04.2080,01:35,10,1,2023-09-09 15:44:08.9090,1694292248.9094439,-0.00030786142451688647,-0.004522047471255064,-0.003584614722058177,0.0179595947265625,0.002166748046875,-1.0002899169921875,104.33976745605469,-24.259674072265625,-39.534820556640625,2023-09-09 15:44:08.4680,1694292248.467956,-0.021087853237986565,0.007374947424978018,-0.0021306751295924187,-0.021148648113012314,0.46063223481178284,-0.88238525390625,
0,2023-09-09 15:44:04.2080,01:35,10,1,2023-09-09 15:44:09.0090,1694292249.0094361,-0.0024743429385125637,-0.0032613070216029882,-0.0021350563038140535,0.018585205078125,0.0025787353515625,-1.0010528564453125,104.37742614746094,-24.291473388671875,-39.19635009765625,2023-09-09 15:44:08.5670,1694292248.567491,-0.008785580284893513,0.012555994093418121,0.02176610194146633,-0.024261431768536568,0.47186270356178284,-0.8818054795265198,
0,2023-09-09 15:44:04.2080,01:35,10,1,2023-09-09 15:44:09.1090,1694292249.109421,0.00039308256236836314,-0.007940747775137424,-0.00555295730009675,0.0180816650390625,0.0017242431640625,-1.0012054443359375,104.30964660644531,-24.389633178710938,-39.43299865722656,2023-09-09 15:44:08.6670,1694292248.667222,0.04171314835548401,-0.005246171727776527,-0.005479034502059221,-0.017211871221661568,0.4774170517921448,-0.8814697265625,
0,2023-09-09 15:44:04.2080,01:35,10,1,2023-09-09 15:44:09.2090,1694292249.2092419,-0.0012010856298729777,-0.004169711377471685,-0.0019433086272329092,0.0178985595703125,0.002044677734375,-1.000823974609375,104.33184814453125,-24.389633178710938,-39.44952392578125,2023-09-09 15:44:08.7670,1694292248.767389,-0.02898179553449154,0.004823239520192146,0.0031823646277189255,-0.01959226094186306,0.4580687880516052,-0.88238525390625,
0,2023-09-09 15:44:04.2080,01:35,10,1,2023-09-09 15:44:09.3090,1694292249.309462,-1.2250540748937055e-05,-0.002773415995761752,-0.0005763080553151667,0.0179443359375,0.001708984375,-1.000030517578125,104.49519348144531,-24.545394897460938,-39.27345275878906,2023-09-09 15:44:08.8670,1694292248.866942,-0.02264806628227234,0.00028854142874479294,-0.0061523811891674995,-0.017181359231472015,0.45845022797584534,-0.886444091796875,
0,2023-09-09 15:44:04.2080,01:35,10,1,2023-09-09 15:44:09.4090,1694292249.409435,2.5300030756625347e-05,-0.00464694993570447,-0.004689293913543224,0.0179290771484375,0.001922607421875,-1.0013427734375,104.38800048828125,-24.276779174804688,-39.21498107910156,2023-09-09 15:44:08.9670,1694292248.966758,0.009400281123816967,-0.012551089748740196,0.005318985320627689,-0.020507775247097015,0.4683074355125427,-0.8797760009765625,
0,2023-09-09 15:44:04.2080,01:35,10,1,2023-09-09 15:44:09.5090,1694292249.509396,-0.000958205375354737,-0.0041731735691428185,-0.0018540926976129413,0.0182342529296875,0.0018157958984375,-1.0006103515625,104.39122009277344,-24.458419799804688,-39.39056396484375,2023-09-09 15:44:09.0670,1694292249.066648,0.03256338834762573,0.007971229031682014,0.009943298064172268,-0.019439660012722015,0.4673461318016052,-0.8812255859375,
0,2023-09-09 15:44:04.2080,01:35,10,1,2023-09-09 15:44:09.6090,1694292249.609305,0.0013848437229171395,-0.002269545802846551,0.0002532666258048266,0.018341064453125,0.00189208984375,-1.0009918212890625,104.45458984375,-24.306320190429688,-38.961578369140625,2023-09-09 15:44:09.1660,1694292249.1664681,0.052508071064949036,-0.0006504887714982033,0.004083278588950634,-0.020645106211304665,0.4860686659812927,-0.8793030381202698,
0,2023-09-09 15:44:04.2080,01:35,10,1,2023-09-09 15:44:09.7090,1694292249.709437,0.000297475082334131,-0.0046213832683861256,-0.00392762990668416,0.018524169921875,0.00164794921875,-1.0013427734375,104.51443481445312,-24.235931396484375,-39.23748779296875,2023-09-09 15:44:09.2670,1694292249.266519,-0.04423704743385315,0.017953690141439438,0.00045348986168392,-0.018035855144262314,0.45744314789772034,-0.8829041123390198,
0,2023-09-09 15:44:04.2080,01:35,10,1,2023-09-09 15:44:09.8090,1694292249.809473,-7.616640505148098e-05,-0.0027329358272254467,-0.0037236318457871675,0.0181121826171875,0.0021209716796875,-1.0006256103515625,104.53831481933594,-24.406417846679688,-39.515106201171875,2023-09-09 15:44:09.3660,1694292249.3661718,-0.005371540784835815,0.0056152637116611,-0.0028399748262017965,-0.015319788828492165,0.44392386078834534,-0.8847503662109375,
0,2023-09-09 15:44:04.2080,01:35,10,1,2023-09-09 15:44:09.9090,1694292249.909309,0.002525209216400981,-0.004028297495096922,-0.001284708851017058,0.0175933837890625,0.002044677734375,-1.0008697509765625,104.419189453125,-24.290969848632812,-39.181365966796875,2023-09-09 15:44:09.4660,1694292249.46601,0.05419345200061798,-0.0007343785837292671,0.005460598971694708,-0.013137783855199814,0.48376452922821045,-0.8795166015625,
0,2023-09-09 15:44:04.2080,01:35,10,1,2023-09-09 15:44:10.0090,1694292250.0093179,-0.0006671218434348702,-0.0016626114957034588,-0.0021755362395197153,0.01812744140625,0.001007080078125,-1.001495361328125,104.40751647949219,-24.397308349609375,-39.28483581542969,2023-09-09 15:44:09.5660,1694292249.5660238,0.028942756354808807,-7.484667003154755e-05,-0.0028865800704807043,-0.015060383826494217,0.48255908489227295,-0.878753662109375,
0,2023-09-09 15:44:04.2080,01:35,10,1,2023-09-09 15:44:10.1090,1694292250.109335,0.0003121224872302264,-0.0034903388004750013,-0.001029311795718968,0.0183258056640625,0.0017852783203125,-1.000640869140625,104.41419982910156,-24.571640014648438,-39.49070739746094,2023-09-09 15:44:09.6660,1694292249.6658812,-0.08513428270816803,0.013076907955110073,0.0009540975443087518,-0.016586266458034515,0.46011343598365784,-0.88116455078125,
0,2023-09-09 15:44:04.2080,01:35,10,1,2023-09-09 15:44:10.2090,1694292250.2094421,-0.0004881574132014066,-0.0062219430692493916,-0.0022024342324584723,0.017852783203125,0.0011444091796875,-1.0005645751953125,104.37925720214844,-24.424850463867188,-39.33979797363281,2023-09-09 15:44:09.7650,1694292249.765486,-0.011093608103692532,0.0010053319856524467,-0.0038230805657804012,-0.012557949870824814,0.4528350234031677,-0.8820038437843323,
0,2023-09-09 15:44:04.2080,01:35,10,1,2023-09-09 15:44:10.3090,1694292250.3093882,0.0026109630707651377,-0.005817409139126539,-0.002261822810396552,0.019073486328125,0.0017852783203125,-1.0008392333984375,104.31047058105469,-24.29815673828125,-39.29014587402344,2023-09-09 15:44:09.8650,1694292249.865386,0.02874348685145378,-0.015415585599839687,0.0017998176626861095,-0.01234433799982071,0.4873961806297302,-0.8784942626953125,
0,2023-09-09 15:44:04.2080,01:35,10,1,2023-09-09 15:44:10.4090,1694292250.40936,-0.005304217804223299,-0.006711165886372328,-0.003631752682849765,0.018218994140625,0.0021514892578125,-1.00091552734375,104.34124755859375,-24.226150512695312,-39.63685607910156,2023-09-09 15:44:09.9650,1694292249.9653869,-0.0022047758102416992,-0.022791344672441483,-0.0026857778429985046,-0.013534504920244217,0.48661795258522034,-0.880889892578125,
0,2023-09-09 15:44:04.2080,01:35,10,1,2023-09-09 15:44:10.5090,1694292250.509433,-0.00010279801790602505,-0.003373692510649562,-0.001618136651813984,0.01806640625,0.001251220703125,-1.00177001953125,104.30233764648438,-24.177490234375,-39.22502136230469,2023-09-09 15:44:10.0650,1694292250.065186,-0.05836711451411247,0.012716582044959068,0.008024923503398895,-0.017044026404619217,0.45483389496803284,-0.8806000351905823,
0,2023-09-09 15:44:04.2080,01:35,10,1,2023-09-09 15:44:10.6090,1694292250.609295,-0.0019768644124269485,-0.005270395893603563,0.00016831177345011383,0.0179595947265625,0.0020904541015625,-1.0018157958984375,104.38168334960938,-24.360580444335938,-39.32774353027344,2023-09-09 15:44:10.1650,1694292250.164948,0.029418066143989563,0.005664931610226631,0.023299917578697205,-0.0066985758021473885,0.47036731243133545,-0.8816070556640625,
0,2023-09-09 15:44:04.2080,01:35,10,1,2023-09-09 15:44:10.7090,1694292250.709096,-0.001689775730483234,-0.0027925907634198666,-0.002752909669652581,0.0180511474609375,0.001922607421875,-1.0013580322265625,104.33381652832031,-24.343505859375,-38.89796447753906,2023-09-09 15:44:10.2650,1694292250.264754,0.1382535994052887,-0.04069564491510391,0.00011357059702277184,-0.020736658945679665,0.4806975722312927,-0.8749542236328125,
0,2023-09-09 15:44:04.2080,01:35,10,1,2023-09-09 15:44:10.8090,1694292250.809433,-0.00173771264962852,-0.0027172232512384653,-0.0006767092272639275,0.0182952880859375,0.002593994140625,-1.0015411376953125,104.33139038085938,-23.995880126953125,-39.22468566894531,2023-09-09 15:44:10.3650,1694292250.364551,-0.08353704959154129,0.012320304289460182,0.004081780556589365,-0.016342131420969963,0.45661917328834534,-0.8818817734718323,
0,2023-09-09 15:44:04.2080,01:35,10,1,2023-09-09 15:44:10.9090,1694292250.909323,0.00041252365917898715,-0.0036005936563014984,-0.0031353395897895098,0.0177764892578125,0.00115966796875,-1.0009002685546875,104.44490051269531,-24.178817749023438,-39.285614013671875,2023-09-09 15:44:10.4640,1694292250.464316,0.03638396039605141,-0.04739588871598244,-0.025108562782406807,-0.019454920664429665,0.46035754680633545,-0.8814239501953125,
0,2023-09-09 15:44:04.2080,01:35,10,1,2023-09-09 15:44:11.0090,1694292251.009183,-0.002104163635522127,-0.003997138235718012,-0.001936384360305965,0.018768310546875,0.0022125244140625,-1.00177001953125,104.46536254882812,-24.176116943359375,-39.26899719238281,2023-09-09 15:44:10.5720,1694292250.571505,0.045886918902397156,0.027410175651311874,0.00028547769761644304,-0.031204184517264366,0.46369925141334534,-0.8784027099609375,
0,2023-09-09 15:44:04.2080,01:35,10,1,2023-09-09 15:44:11.1090,1694292251.109268,-0.000592020689509809,-0.002989664673805237,-0.00019734023953787982,0.0180511474609375,0.00140380859375,-1.0010986328125,104.2078857421875,-24.0518798828125,-39.47691345214844,2023-09-09 15:44:10.6640,1694292250.6642041,0.04546201229095459,0.0733606219291687,0.012337545864284039,-0.01890561729669571,0.46395865082740784,-0.879730224609375,
0,2023-09-09 15:44:04.2080,01:35,10,1,2023-09-09 15:44:11.2090,1694292251.2091389,-0.003459978848695755,-0.003579022129997611,-0.004780906718224287,0.0180816650390625,0.000885009765625,-1.001220703125,104.30699157714844,-24.12835693359375,-39.32093811035156,2023-09-09 15:44:10.7640,1694292250.764021,0.030162017792463303,0.002688049804419279,-0.03008507750928402,-0.007949801161885262,0.46487417817115784,-0.8917999267578125,
0,2023-09-09 15:44:04.2080,01:35,10,1,2023-09-09 15:44:11.3090,1694292251.309319,0.0009773800848051906,-0.005019792355597019,-0.0021558289881795645,0.0184783935546875,0.001922607421875,-1.0027618408203125,104.366455078125,-24.301361083984375,-38.94596862792969,2023-09-09 15:44:10.8640,1694292250.863735,0.14600060880184174,-0.014276552014052868,-0.057998400181531906,-0.0028991298750042915,0.43742361664772034,-0.8905181884765625,
0,2023-09-09 15:44:04.2080,01:35,10,1,2023-09-09 15:44:11.4090,1694292251.409416,-0.001746234716847539,-0.00501020485535264,0.0001270327775273472,0.01824951171875,0.0020904541015625,-1.00054931640625,104.31217956542969,-24.270767211914062,-39.44917297363281,2023-09-09 15:44:10.9640,1694292250.963604,0.009682442992925644,0.058286864310503006,0.19029437005519867,-0.029434170573949814,0.45236197113990784,-0.9537811279296875,
0,2023-09-09 15:44:04.2080,01:35,10,1,2023-09-09 15:44:11.5090,1694292251.5092459,-0.0017507621087133884,-0.003034672001376748,-0.003608849598094821,0.018585205078125,0.0016326904296875,-1.0007476806640625,104.36758422851562,-24.31817626953125,-39.682159423828125,2023-09-09 15:44:11.0650,1694292251.064897,-0.2257021814584732,-0.4630297124385834,-0.07149753719568253,-0.058090172708034515,0.42068472504615784,-0.906982421875,
0,2023-09-09 15:44:04.2080,01:35,10,1,2023-09-09 15:44:11.6090,1694292251.60917,-0.00230842805467546,-0.003922303672879934,-0.0038128476589918137,0.0183258056640625,0.0016021728515625,-1.0015106201171875,104.33094787597656,-24.099395751953125,-39.311431884765625,2023-09-09 15:44:11.1630,1694292251.163251,-0.6734028458595276,-0.6073482632637024,-0.3770018517971039,-0.15362543612718582,0.5156554281711578,-0.8829346299171448,
0,2023-09-09 15:44:04.2080,01:35,10,1,2023-09-09 15:44:11.7090,1694292251.70929,-0.001985120354220271,-0.0032376048620790243,-0.002552906284108758,0.018585205078125,0.0027923583984375,-1.0005950927734375,104.39227294921875,-24.157913208007812,-39.5318603515625,2023-09-09 15:44:11.2630,1694292251.2630901,0.1610814929008484,-0.9870588183403015,-0.3886925280094147,-0.30497734248638153,0.5395049452781677,-0.8194732666015625,
0,2023-09-09 15:44:04.2080,01:35,10,1,2023-09-09 15:44:11.8090,1694292251.809313,0.001333178486675024,-0.004376372788101435,0.0014434333425015211,0.017822265625,0.002105712890625,-1.001251220703125,104.48095703125,-24.2420654296875,-39.53831481933594,2023-09-09 15:44:11.3630,1694292251.3629742,-0.7166054844856262,-1.2180708646774292,-0.5504468083381653,-0.35702505707740784,0.5844115018844604,-0.7954254150390625,
0,2023-09-09 15:44:04.2080,01:35,10,1,2023-09-09 15:44:11.9090,1694292251.909155,-0.0014692660188302398,-0.004501807503402233,-0.0027377295773476362,0.018280029296875,0.001434326171875,-1.00103759765625,104.36021423339844,-24.2117919921875,-39.46820068359375,2023-09-09 15:44:11.4630,1694292251.4627252,-1.5206812620162964,-1.1730728149414062,-0.7995147109031677,-0.44805899262428284,0.6208037734031677,-0.714508056640625,
0,2023-09-09 15:44:04.2080,01:35,10,1,2023-09-09 15:44:12.0090,1694292252.009238,-0.000333161442540586,-0.0032868734560906887,-0.0025065671652555466,0.018157958984375,0.0019683837890625,-1.0008544921875,104.24598693847656,-24.248886108398438,-39.19584655761719,2023-09-09 15:44:11.5630,1694292251.562873,-0.7808529138565063,-0.5841618776321411,-1.0673922300338745,-0.4114379286766052,0.7536314725875854,-0.6444398164749146,
0,2023-09-09 15:44:04.2080,01:35,10,1,2023-09-09 15:44:12.1090,1694292252.1090832,0.0012189288390800357,-0.0038602519780397415,-0.0017923073610290885,0.0184783935546875,0.0019073486328125,-1.00128173828125,104.45944213867188,-24.296875,-39.30335998535156,2023-09-09 15:44:11.6630,1694292251.662574,0.23389524221420288,-0.6868593096733093,-1.1106301546096802,-0.2894133925437927,0.6137542128562927,-0.4520264267921448,
0,2023-09-09 15:44:04.2080,01:35,10,1,2023-09-09 15:44:12.2090,1694292252.209159,-0.0009174589649774134,-0.0024892566725611687,-0.0015374429058283567,0.018707275390625,0.001800537109375,-1.0004425048828125,104.48532104492188,-24.582794189453125,-39.01237487792969,2023-09-09 15:44:11.7620,1694292251.76235,-0.45586973428726196,-0.6215418577194214,-0.5399013757705688,-0.940322756767273,0.33436572551727295,-0.1733246147632599,
0,2023-09-09 15:44:04.2080,01:35,10,1,2023-09-09 15:44:12.3090,1694292252.309068,-3.994741746282671e-06,-0.004190484061837196,-0.003477022983133793,0.0185394287109375,0.001953125,-1.0008087158203125,104.49905395507812,-24.405258178710938,-39.077789306640625,2023-09-09 15:44:11.8620,1694292251.8622189,-0.1355317384004593,-0.402791291475296,-0.48793113231658936,-0.723129153251648,0.3984069228172302,-0.39013680815696716,
0,2023-09-09 15:44:04.2080,01:35,10,1,2023-09-09 15:44:12.4090,1694292252.409199,-0.0016202671686187387,-0.0035718316212296486,-0.0014703312190249562,0.017364501953125,0.0017242431640625,-1.000396728515625,104.47357177734375,-24.3111572265625,-39.35221862792969,2023-09-09 15:44:11.9620,1694292251.961913,0.18852029740810394,-0.5033499598503113,-0.5478682518005371,-0.9098509550094604,0.39480581879615784,-0.3370972275733948,
0,2023-09-09 15:44:04.2080,01:35,10,1,2023-09-09 15:44:12.5090,1694292252.50909,-0.00276089902035892,-0.005281847435981035,-0.001353152096271515,0.0184173583984375,0.00189208984375,-1.001251220703125,104.20562744140625,-24.353530883789062,-38.97151184082031,2023-09-09 15:44:12.0620,1694292252.0617862,0.6970769166946411,-0.6451157331466675,-0.35343649983406067,-1.0564725995063782,0.25819388031959534,-0.34716808795928955,
0,2023-09-09 15:44:04.2080,01:35,10,1,2023-09-09 15:44:12.6090,1694292252.609227,-0.0010543455136939883,-0.00440992834046483,-0.002511893631890416,0.0183563232421875,0.0022125244140625,-1.0017242431640625,104.42877197265625,-24.58416748046875,-38.91937255859375,2023-09-09 15:44:12.1620,1694292252.1617641,0.15739373862743378,-0.450244277715683,-0.3533141314983368,-0.9732969999313354,0.2937926650047302,-0.15638744831085205,
0,2023-09-09 15:44:04.2080,01:35,10,1,2023-09-09 15:44:12.7090,1694292252.709375,0.0011113371001556516,-0.004047205671668053,-0.0046448190696537495,0.017730712890625,0.0015411376953125,-1.0009765625,104.3250732421875,-24.308319091796875,-39.154296875,2023-09-09 15:44:12.2610,1694292252.2613158,-0.12036903202533722,-0.2986403703689575,-0.15348203480243683,-0.9667661190032959,0.35380545258522034,-0.23883070051670074,
0,2023-09-09 15:44:04.2080,01:35,10,1,2023-09-09 15:44:12.8090,1694292252.809006,-0.0014777880860492587,-0.004165716469287872,-0.0025893915444612503,0.0178680419921875,0.00238037109375,-1.0007171630859375,104.3670654296875,-24.230422973632812,-39.28033447265625,2023-09-09 15:44:12.3610,1694292252.361312,-0.2773796021938324,-0.39929255843162537,-0.06116506829857826,-0.8162535429000854,0.3617401123046875,-0.20137035846710205,
0,2023-09-09 15:44:04.2080,01:35,10,1,2023-09-09 15:44:12.9090,1694292252.909371,-0.0004218447138555348,-0.0037824877072125673,-0.0016370450612157583,0.0180511474609375,0.0018463134765625,-1.0019683837890625,104.46524047851562,-24.246810913085938,-39.29524230957031,2023-09-09 15:44:12.4610,1694292252.461173,0.06203053519129753,-0.2343568503856659,-0.21280857920646667,-0.9347379207611084,0.39752188324928284,-0.15473948419094086,
0,2023-09-09 15:44:04.2080,01:35,10,1,2023-09-09 15:44:13.0090,1694292253.009276,0.0010910971323028207,-0.005967611446976662,-0.002817358123138547,0.0177764892578125,0.0019683837890625,-1.0009613037109375,104.46524047851562,-24.246810913085938,-39.29524230957031,2023-09-09 15:44:12.5610,1694292252.560843,0.5663104057312012,-0.43659505248069763,-0.28732621669769287,-0.810089111328125,0.569183349609375,-0.22676099836826324,
0,2023-09-09 15:44:04.2080,01:35,10,1,2023-09-09 15:44:13.1090,1694292253.108872,0.002528138691559434,-0.005802761763334274,-0.004608600400388241,0.0180816650390625,0.002410888671875,-1.00054931640625,104.33866882324219,-24.139175415039062,-39.52769470214844,2023-09-09 15:44:12.6610,1694292252.6607819,0.07582071423530579,-0.3011448085308075,-0.27645644545555115,-0.8700864911079407,0.31916800141334534,-0.12875382602214813,
0,2023-09-09 15:44:04.2080,01:35,10,1,2023-09-09 15:44:13.2110,1694292253.2106729,-0.0022178804501891136,-0.0036946034524589777,-0.0017859158106148243,0.0177154541015625,0.0022735595703125,-1.000762939453125,104.25726318359375,-24.163711547851562,-39.38624572753906,2023-09-09 15:44:12.7610,1694292252.760555,-0.02454623393714428,-0.17553547024726868,-0.3394351899623871,-0.9624325633049011,0.12391655147075653,-0.07293713837862015,
0,2023-09-09 15:44:04.2080,01:35,10,1,2023-09-09 15:44:13.3090,1694292253.308994,-0.0036935380194336176,-0.0022003035992383957,-0.0005520732956938446,0.01824951171875,0.001922607421875,-1.0006256103515625,104.43663024902344,-24.465896606445312,-39.47259521484375,2023-09-09 15:44:12.8600,1694292252.8604069,-0.14981481432914734,-0.07444535195827484,-0.2181900590658188,-1.127807378768921,0.22657771408557892,0.014922909438610077,
0,2023-09-09 15:44:04.2080,01:35,10,1,2023-09-09 15:44:13.4090,1694292253.409064,-0.0027001791168004274,-0.0011973571963608265,-0.0028389296494424343,0.0184478759765625,0.001617431640625,-1.00146484375,104.43922424316406,-24.429183959960938,-39.54331970214844,2023-09-09 15:44:12.9600,1694292252.96033,-0.07087071985006332,-0.019811399281024933,-0.31670600175857544,-1.11322021484375,0.1373443901538849,-0.01083383709192276,
0,2023-09-09 15:44:04.2080,01:35,10,1,2023-09-09 15:44:13.5090,1694292253.5091329,-0.0016306535108014941,-0.003918042406439781,-0.0008367652189917862,0.017791748046875,0.001495361328125,-1.001251220703125,104.25039672851562,-24.19854736328125,-39.53330993652344,2023-09-09 15:44:13.0600,1694292253.0601568,-0.05955295264720917,0.025547027587890625,-0.21254315972328186,-1.071777105331421,0.013961732387542725,-0.06967175751924515,
0,2023-09-09 15:44:04.2080,01:35,10,1,2023-09-09 15:44:13.6090,1694292253.609029,-0.0024884575977921486,-0.004418983124196529,-0.0007440872141160071,0.0184173583984375,0.000946044921875,-1.0023345947265625,104.3153076171875,-24.386001586914062,-39.27522277832031,2023-09-09 15:44:13.1600,1694292253.159966,-0.1726560741662979,0.14116071164608002,-0.20140810310840607,-1.0285186171531677,0.07272335886955261,-0.08506789058446884,
0,2023-09-09 15:44:04.2080,01:35,10,1,2023-09-09 15:44:13.7090,1694292253.708947,-0.003177151083946228,-0.005034439731389284,-0.0012855078093707561,0.018829345703125,0.001861572265625,-1.0013427734375,104.25755310058594,-24.332000732421875,-39.18110656738281,2023-09-09 15:44:13.2600,1694292253.259752,-0.30076369643211365,0.08612116426229477,-0.23949621617794037,-1.0475156903266907,-0.054260268807411194,-0.09106462448835373,
0,2023-09-09 15:44:04.2080,01:35,10,1,2023-09-09 15:44:13.8090,1694292253.809093,-0.00017656758427619934,-0.005511145573109388,-0.0006223807577043772,0.018157958984375,0.0019073486328125,-1.0008544921875,104.43821716308594,-24.48419189453125,-39.39056396484375,2023-09-09 15:44:13.3600,1694292253.359713,-0.13916762173175812,-0.019164785742759705,-0.019933374598622322,-0.9827271103858948,0.1566772684454918,-0.14506545662879944,
0,2023-09-09 15:44:04.2080,01:35,10,1,2023-09-09 15:44:13.9090,1694292253.909066,-0.0014855111949145794,-0.0027332021854817867,-0.0035459990613162518,0.018157958984375,0.00164794921875,-1.0009307861328125,104.40336608886719,-24.36944580078125,-39.09619140625,2023-09-09 15:44:13.4590,1694292253.459418,0.22690710425376892,-0.09109023958444595,-0.06618505716323853,-0.9675289988517761,0.2899780124425888,-0.15408337861299515,
0,2023-09-09 15:44:04.2080,01:35,10,1,2023-09-09 15:44:14.0090,1694292254.00907,0.0002918824611697346,-0.005304484162479639,-0.001980859087780118,0.0189361572265625,0.0020751953125,-1.001312255859375,104.3575439453125,-24.37750244140625,-39.36161804199219,2023-09-09 15:44:13.5590,1694292253.559144,0.1531699001789093,-0.09953033179044724,0.11161483079195023,-1.0564422607421875,0.1311950534582138,-0.06300371885299683,
0,2023-09-09 15:44:04.2080,01:35,10,1,2023-09-09 15:44:14.1090,1694292254.109048,-0.003040530951693654,-0.0033300165086984634,0.0011163970921188593,0.0182647705078125,0.0016937255859375,-1.000518798828125,104.35012817382812,-24.449142456054688,-39.33122253417969,2023-09-09 15:44:13.6590,1694292253.659048,0.16864053905010223,-0.07537825405597687,0.03695414215326309,-1.0406950116157532,0.16705317050218582,-0.11363232135772705,
0,2023-09-09 15:44:04.2080,01:35,10,1,2023-09-09 15:44:14.2100,1694292254.210146,0.00019228023302275687,-0.006347111891955137,-0.003337473375722766,0.0179290771484375,0.0017547607421875,-1.00054931640625,104.42716979980469,-24.437255859375,-38.629058837890625,2023-09-09 15:44:13.7590,1694292253.7588968,0.2511248290538788,-0.20632201433181763,0.004623334389179945,-1.0005950927734375,0.09941104426980019,-0.12080395966768265,
0,2023-09-09 15:44:04.2080,01:35,10,1,2023-09-09 15:44:14.3090,1694292254.3093991,-0.0010580739472061396,-0.004764661658555269,-0.004336691461503506,0.0185699462890625,0.0014190673828125,-1.000732421875,104.41319274902344,-24.29815673828125,-39.05999755859375,2023-09-09 15:44:13.8590,1694292253.858817,0.30351021885871887,-0.20987561345100403,0.12035994976758957,-0.9895322322845459,0.07986446842551231,-0.030227836221456528,
0,2023-09-09 15:44:04.2080,01:35,10,1,2023-09-09 15:44:14.4100,1694292254.410088,-0.0013113404856994748,-0.0033723609521985054,-0.003704989794641733,0.0185089111328125,0.0016326904296875,-1.0016326904296875,104.40896606445312,-24.35931396484375,-39.06636047363281,2023-09-09 15:44:13.9590,1694292253.958642,0.07668251544237137,0.03865404054522514,0.06475947052240372,-0.9815673232078552,0.0930480845272541,-0.11515823006629944,
0,2023-09-09 15:44:04.2080,01:35,10,1,2023-09-09 15:44:14.5110,1694292254.51116,0.0007880293414928019,-0.006355101242661476,-0.0024317323695868254,0.018218994140625,0.0013885498046875,-1.001708984375,104.44593811035156,-24.396011352539062,-38.986724853515625,2023-09-09 15:44:14.0580,1694292254.058298,0.08425115048885345,0.09597712010145187,0.11262024194002151,-0.9477078318595886,0.0641631931066513,0.024688556790351868,
0,2023-09-09 15:44:04.2080,01:35,10,1,2023-09-09 15:44:14.6090,1694292254.609158,-0.0031441280152648687,-0.0007206514128483832,-0.0011558119440451264,0.0186309814453125,0.0018310546875,-1.001129150390625,104.44174194335938,-24.397933959960938,-38.94866943359375,2023-09-09 15:44:14.1580,1694292254.1583838,0.015567762777209282,0.025914542376995087,-0.00043151178397238255,-0.9655150175094604,-0.054397597908973694,-0.016937457025051117,
0,2023-09-09 15:44:04.2080,01:35,10,1,2023-09-09 15:44:14.7090,1694292254.70884,0.00038695731200277805,-0.004619519226253033,-0.002404301892966032,0.018035888671875,0.0019073486328125,-1.001617431640625,104.43211364746094,-24.358078002929688,-39.01878356933594,2023-09-09 15:44:14.2580,1694292254.258142,-0.08711154758930206,0.04877392202615738,0.020548637956380844,-1.014907717704773,-0.049392715096473694,0.021728303283452988,
0,2023-09-09 15:44:04.2080,01:35,10,1,2023-09-09 15:44:14.8090,1694292254.809135,-0.000586161739192903,-0.00515774404630065,-0.0032927324064075947,0.018524169921875,0.0012359619140625,-1.0005340576171875,104.41046142578125,-24.405746459960938,-39.26576232910156,2023-09-09 15:44:14.3580,1694292254.358068,-0.13947848975658417,0.07308246195316315,0.023182304576039314,-0.989105224609375,-0.0405883863568306,0.021789394319057465,
0,2023-09-09 15:44:04.2080,01:35,10,1,2023-09-09 15:44:14.9090,1694292254.909024,-0.003516437951475382,-0.005792108830064535,-0.0012610068079084158,0.0181427001953125,0.0021514892578125,-1.000701904296875,104.38789367675781,-24.087539672851562,-39.53138732910156,2023-09-09 15:44:14.4580,1694292254.457779,0.07949414849281311,0.005332036409527063,-0.009697780944406986,-1.0053861737251282,0.07695009931921959,-0.10531629621982574,
0,2023-09-09 15:44:04.2080,01:35,10,1,2023-09-09 15:44:15.0090,1694292255.0091581,-0.0018780612153932452,-0.004265052266418934,0.00034354778472334146,0.0180206298828125,0.0014801025390625,-1.0022430419921875,104.45576477050781,-24.333877563476562,-39.259033203125,2023-09-09 15:44:14.5580,1694292254.5582662,0.019486935809254646,-0.0298021137714386,-0.05720428004860878,-0.9825284481048584,0.10049436613917351,-0.06906137987971306,
0,2023-09-09 15:44:04.2080,01:35,10,1,2023-09-09 15:44:15.1090,1694292255.109054,-0.0013992248568683863,-0.005863481666892767,-0.0022058964241296053,0.017913818359375,0.002288818359375,-1.0011444091796875,104.31045532226562,-24.277679443359375,-39.50895690917969,2023-09-09 15:44:14.6580,1694292254.65763,0.07158682495355606,-0.002543729729950428,0.0033164878841489553,-0.9886016845703125,0.1374817118048668,-0.06524669751524925,
0,2023-09-09 15:44:04.2080,01:35,10,1,2023-09-09 15:44:15.2090,1694292255.209027,-0.0018338527297601104,-0.00541500560939312,-0.002319879597052932,0.0181427001953125,0.001678466796875,-1.00079345703125,104.32684326171875,-24.29522705078125,-39.46217346191406,2023-09-09 15:44:14.7570,1694292254.757344,0.08971841633319855,-0.0399550162255764,0.007572884671390057,-0.9926451444625854,0.0741729624569416,-0.04727191850543022,
0,2023-09-09 15:44:04.2080,01:35,10,1,2023-09-09 15:44:15.3100,1694292255.309509,-0.0003352919884491712,-0.0054972972720861435,-0.002805906580761075,0.01788330078125,0.0013275146484375,-1.0014801025390625,104.46878051757812,-24.12176513671875,-39.47483825683594,2023-09-09 15:44:14.8570,1694292254.8572888,-0.014486875385046005,0.0026594209484755993,0.03900900483131409,-0.9876402020454407,-0.05952456593513489,0.005645576864480972,
0,2023-09-09 15:44:04.2080,01:35,10,1,2023-09-09 15:44:15.4090,1694292255.4094,0.0013454289874061942,-0.002767290687188506,-0.004294879734516144,0.0182037353515625,0.001983642578125,-1.000762939453125,104.50314331054688,-24.15966796875,-38.93971252441406,2023-09-09 15:44:14.9570,1694292254.9571052,-0.023446882143616676,0.022546177729964256,0.0045402767136693,-0.9491424560546875,-0.009552009403705597,-0.019302528351545334,
0,2023-09-09 15:44:04.2080,01:35,10,1,2023-09-09 15:44:15.5090,1694292255.508996,-0.0009025452891364694,-0.0029529130551964045,0.00018029600323643535,0.01837158203125,0.001678466796875,-1.0011444091796875,104.29458618164062,-24.109375,-39.40576171875,2023-09-09 15:44:15.0570,1694292255.056915,-0.05543091148138046,-0.01600068062543869,-0.019002199172973633,-1.0131072998046875,0.0223541222512722,0.0060423314571380615,
0,2023-09-09 15:44:04.2080,01:35,10,1,2023-09-09 15:44:15.6090,1694292255.608892,-0.0006609965930692852,-0.004939631093293428,-0.002802178030833602,0.018585205078125,0.0006256103515625,-1.0023651123046875,104.29484558105469,-24.065185546875,-39.44602966308594,2023-09-09 15:44:15.1570,1694292255.1567888,0.0028612222522497177,-0.03714711219072342,-0.07062254846096039,-1.029052734375,0.10684205964207649,-0.025329723954200745,
0,2023-09-09 15:44:04.2080,01:35,10,1,2023-09-09 15:44:15.7090,1694292255.709019,-0.000821318884845823,-0.005381449591368437,-0.003022687742486596,0.0175933837890625,0.0012359619140625,-1.00152587890625,104.35491943359375,-24.074310302734375,-39.284637451171875,2023-09-09 15:44:15.2570,1694292255.256541,-0.01066257618367672,-0.04448492079973221,-0.05083553120493889,-1.0018765926361084,0.058792125433683395,0.005111590027809143,
0,2023-09-09 15:44:04.2080,01:35,10,1,2023-09-09 15:44:15.8100,1694292255.810462,-0.00027856664382852614,-0.003923634998500347,-0.004102599807083607,0.0173187255859375,0.0020751953125,-1.00146484375,104.23527526855469,-23.912567138671875,-39.283294677734375,2023-09-09 15:44:15.3560,1694292255.356388,0.019310303032398224,-0.030821707099676132,0.0014912905171513557,-1.0106962323188782,0.05535884201526642,-0.056457649916410446,
0,2023-09-09 15:44:04.2080,01:35,10,1,2023-09-09 15:44:15.9090,1694292255.90891,0.0005581985460594296,-0.0038519962690770626,-0.0024644893128424883,0.017913818359375,0.001373291015625,-1.00146484375,104.47895812988281,-24.08673095703125,-39.333099365234375,2023-09-09 15:44:15.4560,1694292255.456221,0.06298894435167313,-0.01576126366853714,0.04204810410737991,-1.0224456787109375,0.0667266994714737,-0.10928358510136604,
0,2023-09-09 15:44:04.2080,01:35,10,1,2023-09-09 15:44:16.0210,1694292256.021203,-0.0025124261155724525,-0.004659732803702354,-0.0005813680472783744,0.017669677734375,0.000457763671875,-1.0015106201171875,104.48028564453125,-24.530502319335938,-38.98980712890625,2023-09-09 15:44:15.5560,1694292255.555809,-0.002290862612426281,0.00782581977546215,0.020027557387948036,-0.9986723065376282,0.008895892649888992,-0.024643074721097946,
0,2023-09-09 15:44:04.2080,01:35,10,1,2023-09-09 15:44:16.1230,1694292256.122797,-0.0010178601369261742,-0.004576642066240311,-0.0030977888964116573,0.0183563232421875,0.0011749267578125,-1.002288818359375,104.44287109375,-24.313156127929688,-39.00190734863281,2023-09-09 15:44:15.6560,1694292255.656076,0.04395672678947449,0.04078416898846626,0.01908842846751213,-0.932693362236023,0.03761289268732071,-0.09050007909536362,
0,2023-09-09 15:44:04.2080,01:35,10,1,2023-09-09 15:44:16.2250,1694292256.224856,-0.0006953513366170228,-0.004267183132469654,-0.0019419770687818527,0.018096923828125,0.0020294189453125,-1.0008087158203125,104.42329406738281,-24.343521118164062,-39.10345458984375,2023-09-09 15:44:15.7560,1694292255.7557569,-0.07651176303625107,0.012838555499911308,0.0016394620761275291,-0.9945829510688782,-0.018966682255268097,-0.03390522301197052,
0,2023-09-09 15:44:04.2080,01:35,10,1,2023-09-09 15:44:16.3090,1694292256.309214,-0.002671150490641594,-0.004791825544089079,-0.0024112260434776545,0.018463134765625,0.001800537109375,-1.001495361328125,104.46687316894531,-24.546905517578125,-38.886077880859375,2023-09-09 15:44:15.8560,1694292255.855793,-0.07177440077066422,-0.027933642268180847,-0.015197374857962132,-0.9922637939453125,0.012924190610647202,-0.002395734190940857,
0,2023-09-09 15:44:04.2080,01:35,10,1,2023-09-09 15:44:16.4090,1694292256.408949,0.000767523015383631,-0.004998753312975168,-0.0033566481433808804,0.0188446044921875,0.002044677734375,-1.000518798828125,104.23721313476562,-24.32513427734375,-38.73301696777344,2023-09-09 15:44:15.9550,1694292255.955497,-0.05536320060491562,-0.03799852728843689,-0.0147026926279068,-1.0191343426704407,0.0257110632956028,0.007217247039079666,
0,2023-09-09 15:44:04.2080,01:35,10,1,2023-09-09 15:44:16.5090,1694292256.508888,-0.0014674017438665032,-0.003564108395949006,-0.002014148747548461,0.0177001953125,0.00177001953125,-1.001556396484375,104.62548828125,-24.498748779296875,-38.98500061035156,2023-09-09 15:44:16.0550,1694292256.0552878,-0.0023742858320474625,-0.029861237853765488,-0.03313909098505974,-0.984603762626648,0.0588226355612278,0.019119076430797577,
0,2023-09-09 15:44:04.2080,01:35,10,1,2023-09-09 15:44:16.6090,1694292256.608951,0.0002769687562249601,-0.0030948594212532043,0.000630636524874717,0.0184783935546875,0.0020599365234375,-1.000274658203125,104.46980285644531,-24.462493896484375,-39.25825500488281,2023-09-09 15:44:16.1550,1694292256.1551151,0.010622472502291203,0.0036783465184271336,-0.007839992642402649,-1.0068511962890625,0.11178585141897202,-0.022369544953107834,
0,2023-09-09 15:44:04.2080,01:35,10,1,2023-09-09 15:44:16.7240,1694292256.72435,-0.0003741741238627583,-0.0056831855326890945,-0.002430400811135769,0.018280029296875,0.0017242431640625,-1.00128173828125,104.3841552734375,-24.508758544921875,-39.384796142578125,2023-09-09 15:44:16.2550,1694292256.25496,-0.021544916555285454,0.025524523109197617,-0.0051763663068413734,-1.017471194267273,0.0514831580221653,-0.024978844448924065,
0,2023-09-09 15:44:04.2080,01:35,10,1,2023-09-09 15:44:16.8090,1694292256.809197,-0.001068193931132555,-0.005056810099631548,-0.0033782199025154114,0.0179443359375,0.001190185546875,-1.0005950927734375,104.34165954589844,-24.466659545898438,-39.28889465332031,2023-09-09 15:44:16.3550,1694292256.3549008,-0.01996612921357155,0.0063797240145504475,-0.03276834636926651,-0.9967496395111084,-0.009475722908973694,-0.035156384110450745,
0,2023-09-09 15:44:04.2080,01:35,10,1,2023-09-09 15:44:16.9210,1694292256.9214501,-0.0034735610242933035,-0.003614974906668067,-0.0012093414552509785,0.018646240234375,0.0016632080078125,-1.0007171630859375,104.40812683105469,-24.347183227539062,-39.29902648925781,2023-09-09 15:44:16.4550,1694292256.454588,-0.05818308889865875,0.041645437479019165,-0.0006243579555302858,-0.9920653104782104,-0.024353064596652985,-0.003524918109178543,
0,2023-09-09 15:44:04.2080,01:35,10,1,2023-09-09 15:44:17.0100,1694292257.010436,0.00023808660625945777,-0.0037760960403829813,-0.002475142013281584,0.0182037353515625,0.0020294189453125,-1.0007781982421875,104.44071960449219,-24.35498046875,-38.59515380859375,2023-09-09 15:44:16.5560,1694292256.55625,0.0011077304370701313,0.05573928356170654,0.0394764207303524,-0.98626708984375,0.055419906973838806,-0.010086171329021454,
0,2023-09-09 15:44:04.2080,01:35,10,1,2023-09-09 15:44:17.1090,1694292257.1087198,-0.00044128578156232834,-0.004542287439107895,-0.002767024328932166,0.018310546875,0.0021209716796875,-1.00177001953125,104.37101745605469,-24.29437255859375,-38.98091125488281,2023-09-09 15:44:16.6540,1694292256.6543698,0.05362766236066818,-0.011536158621311188,-0.0401114784181118,-0.988998293876648,0.1130676157772541,-0.02009599655866623,
0,2023-09-09 15:44:04.2080,01:35,10,1,2023-09-09 15:44:17.2090,1694292257.209041,0.0008034756756387651,-0.005776662845164537,-0.0014234596164897084,0.017974853515625,0.0018157958984375,-1.0023193359375,104.34417724609375,-24.048309326171875,-39.47955322265625,2023-09-09 15:44:16.7540,1694292256.7541208,0.024264847859740257,-0.04240938276052475,-0.033317290246486664,-1.0052490234375,0.05522153526544571,-0.06036396697163582,
0,2023-09-09 15:44:04.2080,01:35,10,1,2023-09-09 15:44:17.3090,1694292257.309046,-0.0007187871960923076,-0.003091131104156375,-0.002569684060290456,0.0184173583984375,0.001373291015625,-1.0000457763671875,104.44905090332031,-24.25494384765625,-38.86430358886719,2023-09-09 15:44:16.8540,1694292256.853946,0.003594190813601017,0.02070193737745285,0.03361554071307182,-1.015548586845398,0.03254697099328041,-0.006942883133888245,
0,2023-09-09 15:44:04.2080,01:35,10,1,2023-09-09 15:44:17.4090,1694292257.4086199,-0.0023164174053817987,-0.005396629683673382,-0.0009531453251838684,0.01776123046875,0.0020294189453125,-1.0016937255859375,104.30599975585938,-24.096420288085938,-39.33905029296875,2023-09-09 15:44:16.9540,1694292256.953958,0.004843812435865402,0.03632150962948799,0.005241121165454388,-0.9560546278953552,0.04298398271203041,-0.05062885582447052,
0,2023-09-09 15:44:04.2080,01:35,10,1,2023-09-09 15:44:17.5090,1694292257.5088758,-0.0010037453612312675,-0.002891926560550928,-0.0029462550301104784,0.01904296875,0.0017852783203125,-1.0013427734375,104.30250549316406,-24.283218383789062,-39.29365539550781,2023-09-09 15:44:17.0540,1694292257.053638,0.026928076520562172,-0.00568532757461071,-0.0075652217492461205,-0.9797821044921875,0.0523681640625,-0.033554211258888245,
0,2023-09-09 15:44:04.2080,01:35,10,1,2023-09-09 15:44:17.6090,1694292257.60888,0.0001257012045243755,-0.003585147438570857,-0.001945439144037664,0.017913818359375,0.00213623046875,-1.000579833984375,104.47921752929688,-24.18121337890625,-38.77801513671875,2023-09-09 15:44:17.1530,1694292257.15344,-0.011860399506986141,-0.007714523933827877,-0.027175240218639374,-1.000289797782898,0.037918075919151306,-0.029556427150964737,
0,2023-09-09 15:44:04.2080,01:35,10,1,2023-09-09 15:44:17.7080,1694292257.708467,-0.002626942005008459,-0.004306064918637276,-0.0012855078093707561,0.0182037353515625,0.0019989013671875,-1.0001983642578125,104.36740112304688,-24.08184814453125,-39.585968017578125,2023-09-09 15:44:17.2530,1694292257.2532768,-0.01616406813263893,-0.0030950047075748444,-0.03428042307496071,-1.001983642578125,0.0581359826028347,-0.006836075335741043,
0,2023-09-09 15:44:04.2080,01:35,10,1,2023-09-09 15:44:17.8260,1694292257.825598,-0.0032807481475174427,-0.00481472909450531,-0.003203516360372305,0.0182037353515625,0.001922607421875,-1.0008544921875,104.603759765625,-24.6160888671875,-39.08540344238281,2023-09-09 15:44:17.3530,1694292257.3532,-0.030192336067557335,-0.01621599867939949,-0.04980315640568733,-0.9947660565376282,0.03721616789698601,-0.004943966865539551,
0,2023-09-09 15:44:04.2080,01:35,10,1,2023-09-09 15:44:17.9090,1694292257.9088922,0.0019859191961586475,-0.003914314322173595,-0.0023121563717722893,0.018463134765625,0.0024871826171875,-1.0009918212890625,104.39718627929688,-24.419219970703125,-39.39649963378906,2023-09-09 15:44:17.4530,1694292257.452923,0.043791212141513824,-0.003950544632971287,-0.013168911449611187,-1.001632571220398,0.0867309607565403,-0.03628554753959179,
0,2023-09-09 15:44:04.2080,01:35,10,1,2023-09-09 15:44:18.0120,1694292258.011836,3.728425554072601e-06,-0.008232363499701023,-0.001020257011987269,0.01849365234375,0.0011444091796875,-1.000396728515625,104.21438598632812,-24.071502685546875,-39.97096252441406,2023-09-09 15:44:17.5530,1694292257.552764,-0.0602148175239563,0.021488768979907036,0.005559901706874371,-1.0195616483688354,0.003997784107923508,0.00839216634631157,
0,2023-09-09 15:44:04.2080,01:35,10,1,2023-09-09 15:44:18.1090,1694292258.1089191,2.5832661776803434e-05,-0.004920456558465958,-0.00034168356796726584,0.018218994140625,0.002166748046875,-0.999176025390625,104.26126098632812,-24.151412963867188,-39.744384765625,2023-09-09 15:44:17.6530,1694292257.652786,0.0247077327221632,0.008987224660813808,0.007135061547160149,-1.012054443359375,0.06768798828125,-0.038284458220005035,
0,2023-09-09 15:44:04.2080,01:35,10,1,2023-09-09 15:44:18.2090,1694292258.208902,-0.00024501082953065634,-0.004196875728666782,-0.00021971078240312636,0.018463134765625,0.001922607421875,-1.0008087158203125,104.35647583007812,-24.059906005859375,-39.69244384765625,2023-09-09 15:44:17.7520,1694292257.752398,-0.011719051748514175,0.03422293812036514,0.06140073016285896,-1.0436553955078125,0.020050048828125,-0.015075821429491043,
0,2023-09-09 15:44:04.2080,01:35,10,1,2023-09-09 15:44:18.3090,1694292258.308961,-0.0006844323943369091,-0.005148422904312611,-0.0016114787431433797,0.01806640625,0.0021820068359375,-1.0006561279296875,104.30767822265625,-24.33563232421875,-39.79277038574219,2023-09-09 15:44:17.8520,1694292257.852343,0.041764479130506516,0.03979520499706268,0.03586338087916374,-0.9829708933830261,0.08584592863917351,-0.08207719773054123,
0,2023-09-09 15:44:04.2080,01:35,10,1,2023-09-09 15:44:18.4110,1694292258.411403,-0.0023901870008558035,-0.0030125677585601807,-0.002046639332547784,0.0179290771484375,0.00164794921875,-1.0013275146484375,104.34657287597656,-24.412887573242188,-39.85038757324219,2023-09-09 15:44:17.9520,1694292257.952147,0.007187394425272942,0.0016844375059008598,-0.0035043000243604183,-0.9958038330078125,0.007186867296695709,-0.05357374995946884,
0,2023-09-09 15:44:04.2080,01:35,10,1,2023-09-09 15:44:18.5090,1694292258.50911,-0.0009353021741844714,-0.0032706281635910273,-0.0007270429632626474,0.0181121826171875,0.00213623046875,-1.000274658203125,104.33740234375,-23.976638793945312,-39.58384704589844,2023-09-09 15:44:18.0520,1694292258.052172,-0.0007636728696525097,0.021348020061850548,0.010575666092336178,-0.988784670829773,0.00874330848455429,-0.047165125608444214,
0,2023-09-09 15:44:04.2080,01:35,10,1,2023-09-09 15:44:18.6090,1694292258.608912,-0.0002463423879817128,-0.0038458709605038166,-0.002389121800661087,0.0181884765625,0.0020751953125,-1.0006866455078125,104.31809997558594,-24.0411376953125,-39.5909423828125,2023-09-09 15:44:18.1520,1694292258.151892,0.06205683574080467,-0.03406437113881111,0.028680501505732536,-1.0081937909126282,0.04370115324854851,-0.050110019743442535,
0,2023-09-09 15:44:04.2080,01:35,10,1,2023-09-09 15:44:18.7090,1694292258.70888,-0.0015049523208290339,-0.005757221486419439,-0.0030389330349862576,0.0181121826171875,0.0016937255859375,-1.0011138916015625,104.31214904785156,-24.12255859375,-39.589019775390625,2023-09-09 15:44:18.2520,1694292258.2516441,0.01691805198788643,-0.03200028836727142,-0.05276292935013771,-0.9663543105125427,0.0644073449075222,-0.04321303963661194,
0,2023-09-09 15:44:04.2080,01:35,10,1,2023-09-09 15:44:18.8110,1694292258.81142,0.001178448786959052,-0.0062613580375909805,-0.0037238982040435076,0.01824951171875,0.001556396484375,-1.001129150390625,104.32777404785156,-24.257614135742188,-39.306793212890625,2023-09-09 15:44:18.3520,1694292258.351718,-0.00794062577188015,0.008981899358332157,-0.03419087082147598,-0.9891660213470459,0.0605774000287056,-0.02969380095601082,
0,2023-09-09 15:44:04.2080,01:35,10,1,2023-09-09 15:44:18.9090,1694292258.909361,-0.001805889536626637,-0.003600327530875802,-0.00367170013487339,0.0181732177734375,0.0021209716796875,-1.0019378662109375,104.38043212890625,-24.232437133789062,-39.19987487792969,2023-09-09 15:44:18.4510,1694292258.4514608,0.016412250697612762,-0.01859380304813385,-0.028566742315888405,-0.9830321073532104,0.047561608254909515,-0.03871169313788414,
0,2023-09-09 15:44:04.2080,01:35,10,1,2023-09-09 15:44:19.0090,1694292259.008954,0.000505734293255955,-0.0021281319204717875,-0.0010381002211943269,0.0182342529296875,0.0016632080078125,-1.0014801025390625,104.30937194824219,-23.87640380859375,-39.45417785644531,2023-09-09 15:44:18.5580,1694292258.5579262,-0.04085056856274605,-0.015190149657428265,0.0013963819947093725,-1.0478665828704834,0.026107758283615112,-0.025558654218912125,
0,2023-09-09 15:44:04.2080,01:35,10,1,2023-09-09 15:44:19.1120,1694292259.111531,1.5446334145963192e-05,-0.003754790872335434,-0.00307541829533875,0.0176544189453125,0.0015869140625,-1.00079345703125,104.25152587890625,-24.04217529296875,-39.50962829589844,2023-09-09 15:44:18.6510,1694292258.6508641,-0.0425831601023674,0.029866140335798264,0.031627755612134933,-1.0219419598579407,0.04524232819676399,-0.013000637292861938,
0,2023-09-09 15:44:04.2080,01:35,10,1,2023-09-09 15:44:19.2110,1694292259.210795,-0.0019052254501730204,-0.0030035129748284817,-0.00433003343641758,0.0180206298828125,0.0015411376953125,-1.0009613037109375,104.34416198730469,-24.137863159179688,-38.883209228515625,2023-09-09 15:44:18.7510,1694292258.750973,0.02526586316525936,0.0312628373503685,0.027672993019223213,-1.0055387616157532,0.06909177079796791,-0.07055684551596642,
0,2023-09-09 15:44:04.2080,01:35,10,1,2023-09-09 15:44:19.3110,1694292259.311337,0.0007957525085657835,-0.005004878621548414,-0.0016407734947279096,0.018829345703125,0.00146484375,-1.0011444091796875,104.43212890625,-24.149856567382812,-39.14927673339844,2023-09-09 15:44:18.8510,1694292258.850521,0.03226039186120033,0.014796510338783264,0.00013257894897833467,-0.9891660809516907,0.06581113487482071,-0.09869396686553955,
0,2023-09-09 15:44:04.2080,01:35,10,1,2023-09-09 15:44:19.4110,1694292259.4111829,-0.002192314248532057,-0.005430984310805798,-0.0010000169277191162,0.0179290771484375,0.0020294189453125,-1.0009765625,104.52388000488281,-24.191665649414062,-38.96800231933594,2023-09-09 15:44:18.9510,1694292258.9505339,-0.005105224438011646,0.0033640931360423565,0.025896331295371056,-0.9893034100532532,0.03485104441642761,-0.05111708119511604,
0,2023-09-09 15:44:04.2080,01:35,10,1,2023-09-09 15:44:19.5090,1694292259.509325,-0.0021997711155563593,-0.002813895931467414,-0.004279966000467539,0.018280029296875,0.0016632080078125,-1.001007080078125,104.49363708496094,-24.2969970703125,-39.23579406738281,2023-09-09 15:44:19.0500,1694292259.050385,0.0472165048122406,-0.011423242278397083,0.033435773104429245,-1.0508573651313782,0.04481504485011101,-0.07518020644783974,
0,2023-09-09 15:44:04.2080,01:35,10,1,2023-09-09 15:44:19.6110,1694292259.61135,5.4328484111465514e-05,-0.005911418702453375,-0.0002378202771069482,0.01824951171875,0.0012969970703125,-1.0007781982421875,104.340576171875,-24.318252563476562,-39.381683349609375,2023-09-09 15:44:19.1500,1694292259.150051,0.00507397623732686,-0.00815580878406763,0.06448443979024887,-1.0414122343063354,0.03794862702488899,-0.09179703146219254,
0,2023-09-09 15:44:04.2080,01:35,10,1,2023-09-09 15:44:19.7110,1694292259.7114558,0.00041545313433744013,-0.0019944412633776665,-0.0030104373581707478,0.0184173583984375,0.0016937255859375,-1.000396728515625,104.38897705078125,-24.490127563476562,-39.12144470214844,2023-09-09 15:44:19.2500,1694292259.25008,-0.03223650902509689,0.02021165005862713,0.013866600580513477,-1.0081786513328552,0.011489853262901306,-0.016113415360450745,
0,2023-09-09 15:44:04.2080,01:35,10,1,2023-09-09 15:44:19.8110,1694292259.81117,-0.00027057717670686543,-0.0065290057100355625,-0.0020093549974262714,0.01800537109375,0.001861572265625,-1.0004425048828125,104.30206298828125,-24.265792846679688,-39.64088439941406,2023-09-09 15:44:19.3500,1694292259.349743,0.057468872517347336,0.014466146007180214,0.020456723868846893,-0.9755704998970032,0.06060788780450821,-0.09751914069056511,
0,2023-09-09 15:44:04.2080,01:35,10,1,2023-09-09 15:44:19.9110,1694292259.910996,0.0020793962758034468,-0.0019795275293290615,-0.0036799560766667128,0.018768310546875,0.0014190673828125,-1.0018463134765625,104.41036987304688,-24.134140014648438,-39.66094970703125,2023-09-09 15:44:19.4500,1694292259.4496531,0.027626223862171173,0.015097714960575104,0.0361759327352047,-0.9893186092376709,0.042449951171875,-0.08456437662243843,
0,2023-09-09 15:44:04.2080,01:35,10,1,2023-09-09 15:44:20.0110,1694292260.011351,-0.0031041805632412434,-0.00221974472515285,-0.004042145796120167,0.018463134765625,0.0013275146484375,-1.0009307861328125,104.42118835449219,-24.393280029296875,-39.4095458984375,2023-09-09 15:44:19.5510,1694292259.55127,0.04244718328118324,0.0035945898853242397,0.00022435816936194897,-0.9636688232421875,0.05172731727361679,-0.08779924735426903,
0,2023-09-09 15:44:04.2080,01:35,10,1,2023-09-09 15:44:20.1120,1694292260.111634,-0.0007305050967261195,-0.004589425399899483,-0.001133174984715879,0.0184783935546875,0.00152587890625,-1.0008087158203125,104.28076171875,-24.118865966796875,-39.630645751953125,2023-09-09 15:44:19.6500,1694292259.649544,0.024900877848267555,-0.02488592080771923,-0.013316716998815536,-0.9672850370407104,0.030685413628816605,-0.05360429361462593,
0,2023-09-09 15:44:04.2080,01:35,10,1,2023-09-09 15:44:20.2120,1694292260.211652,0.0008463526028208435,-0.005119660869240761,-0.0034645062405616045,0.0180816650390625,0.0016326904296875,-1.0007781982421875,104.34169006347656,-24.3714599609375,-39.087860107421875,2023-09-09 15:44:19.7490,1694292259.749199,0.007257102522999048,-0.045710377395153046,-0.027327973395586014,-0.9749906659126282,0.027282685041427612,-0.049438606947660446,
0,2023-09-09 15:44:04.2080,01:35,10,1,2023-09-09 15:44:20.3110,1694292260.31129,-0.0006756439688615501,-0.004252003040164709,-0.003139067906886339,0.01849365234375,0.002227783203125,-1.0024261474609375,104.37373352050781,-24.235107421875,-39.03802490234375,2023-09-09 15:44:19.8490,1694292259.8490129,0.0021030204370617867,-0.031064718961715698,-0.006019589491188526,-0.9912259578704834,0.025848399847745895,-0.05932631716132164,
0,2023-09-09 15:44:04.2080,01:35,10,1,2023-09-09 15:44:20.4110,1694292260.4111118,-8.76179983606562e-05,-0.0016450346447527409,-0.0019198728259652853,0.01824951171875,0.001800537109375,-1.001556396484375,104.24545288085938,-24.183502197265625,-39.05647277832031,2023-09-09 15:44:19.9490,1694292259.948847,-0.004174383357167244,-0.010062632150948048,-0.008869804441928864,-0.9778287410736084,0.0453185997903347,-0.038192931562662125,
0,2023-09-09 15:44:04.2080,01:35,10,1,2023-09-09 15:44:20.5110,1694292260.511407,0.00017869810108095407,-0.00407410366460681,-0.0027302727103233337,0.0189208984375,0.0018157958984375,-1.0008544921875,104.21275329589844,-23.989334106445312,-39.047943115234375,2023-09-09 15:44:20.0490,1694292260.048702,0.008945413865149021,-0.022728361189365387,-0.011870387941598892,-0.989150881767273,0.0503234937787056,-0.014007702469825745,
0,2023-09-09 15:44:04.2080,01:35,10,1,2023-09-09 15:44:20.6110,1694292260.611387,-0.0006242449744604528,-0.002883670851588249,-0.0025776736438274384,0.018218994140625,0.001373291015625,-1.0020294189453125,104.32958984375,-24.097915649414062,-38.85835266113281,2023-09-09 15:44:20.1490,1694292260.1485739,-0.03744858130812645,-0.009980074129998684,-0.05376144498586655,-1.019027590751648,0.05564878508448601,-0.005462806671857834,
0,2023-09-09 15:44:04.2080,01:35,10,1,2023-09-09 15:44:20.7110,1694292260.710905,5.912217602599412e-05,-0.0070770843885838985,-0.0012538161827251315,0.0184783935546875,0.0020294189453125,-1.001312255859375,104.28024291992188,-24.179946899414062,-38.78993225097656,2023-09-09 15:44:20.2480,1694292260.248497,-0.03300582990050316,0.008669110015034676,-0.015189453028142452,-1.0188445448875427,0.0795745961368084,-0.006576675921678543,
0,2023-09-09 15:44:04.2080,01:35,10,1,2023-09-09 15:44:20.8090,1694292260.8089042,0.0012122709304094315,-0.0019198728259652853,-0.0027355989441275597,0.0182037353515625,0.0020904541015625,-1.0009002685546875,104.32943725585938,-24.031204223632812,-39.02557373046875,2023-09-09 15:44:20.3480,1694292260.348195,-0.02293921634554863,0.0016452893614768982,0.012035843916237354,-1.0012357831001282,0.045867886394262314,-0.03329481557011604,
0,2023-09-09 15:44:04.2080,01:35,10,1,2023-09-09 15:44:20.9090,1694292260.908905,-0.003625893732532859,-0.003552390495315194,-0.0014895059866830707,0.01849365234375,0.00152587890625,-1.0010528564453125,104.3558349609375,-23.995285034179688,-39.13507080078125,2023-09-09 15:44:20.4480,1694292260.448001,-0.011559595353901386,0.0042441352270543575,0.03452600538730621,-1.019088625907898,0.0435791015625,-0.013214264065027237,
0,2023-09-09 15:44:04.2080,01:35,10,1,2023-09-09 15:44:21.0110,1694292261.011197,-0.0009078715811483562,-0.005030444823205471,-0.0021172130946069956,0.018218994140625,0.0025482177734375,-1.0008697509765625,104.35757446289062,-24.199310302734375,-39.189697265625,2023-09-09 15:44:20.5490,1694292260.549048,-0.006024148315191269,0.004924439825117588,3.524048952385783e-05,-1.0033262968063354,0.05242917686700821,-0.05300920084118843,
0,2023-09-09 15:44:04.2080,01:35,10,1,2023-09-09 15:44:21.1110,1694292261.111264,-0.0006016080733388662,-0.006897853687405586,-0.0009376989910379052,0.01837158203125,0.001129150390625,-1.001617431640625,104.3143310546875,-24.16351318359375,-38.9593505859375,2023-09-09 15:44:20.6480,1694292260.647836,0.04534376785159111,0.03223129361867905,0.025860145688056946,-1.0036925673484802,0.06120298430323601,-0.07150282710790634,
0,2023-09-09 15:44:04.2080,01:35,10,1,2023-09-09 15:44:21.2110,1694292261.211244,0.0014096111990511417,-0.005532450973987579,-0.004748948849737644,0.0181427001953125,0.001861572265625,-1.000701904296875,104.41804504394531,-24.123550415039062,-39.57965087890625,2023-09-09 15:44:20.7480,1694292260.7476249,0.05411995202302933,0.0026110848411917686,0.010473732836544514,-0.9722442626953125,0.04498288780450821,-0.08892840147018433,
0,2023-09-09 15:44:04.2080,01:35,10,1,2023-09-09 15:44:21.3110,1694292261.3112988,-0.0016500946367159486,-0.005827262531965971,-0.004686630796641111,0.0179443359375,0.00140380859375,-1.0017242431640625,104.33518981933594,-24.278717041015625,-39.587005615234375,2023-09-09 15:44:20.8470,1694292260.847406,0.03953128680586815,0.0027072252705693245,-0.022827697917819023,-0.9786834716796875,0.0839385949075222,-0.07966633141040802,
0,2023-09-09 15:44:04.2080,01:35,10,1,2023-09-09 15:44:21.4100,1694292261.4097881,-0.0008902947301976383,-0.0027031085919588804,-0.0034139060880988836,0.0182037353515625,0.00177001953125,-1.0005950927734375,104.53753662109375,-24.278228759765625,-39.39276123046875,2023-09-09 15:44:20.9470,1694292260.947279,-0.021105162799358368,0.00586866308003664,0.0018645990639925003,-1.0001371502876282,0.0333404466509819,-0.027877982705831528,
0,2023-09-09 15:44:04.2080,01:35,10,1,2023-09-09 15:44:21.5240,1694292261.5240521,0.0001323590986430645,-0.0065108961425721645,-0.0028823392931371927,0.01812744140625,0.0015411376953125,-1.0002899169921875,104.47811889648438,-24.2308349609375,-38.821990966796875,2023-09-09 15:44:21.0470,1694292261.047055,-0.015309524722397327,-0.025625746697187424,-0.02578064240515232,-0.9910123348236084,0.020523052662611008,-0.03300493210554123,
0,2023-09-09 15:44:04.2080,01:35,10,1,2023-09-09 15:44:21.6090,1694292261.6094232,0.0009701895760372281,-0.004285292699933052,-0.003923634998500347,0.018524169921875,0.001434326171875,-1.001007080078125,104.40377807617188,-24.119552612304688,-39.270904541015625,2023-09-09 15:44:21.1470,1694292261.146912,-0.009138848632574081,0.011535737663507462,-0.021027501672506332,-0.9798277020454407,0.044189438223838806,-0.03816243261098862,
0,2023-09-09 15:44:04.2080,01:35,10,1,2023-09-09 15:44:21.7090,1694292261.708984,-0.00013209278404247016,-0.0038043255917727947,-0.0014929680619388819,0.0179443359375,0.0012359619140625,-1.000396728515625,104.37582397460938,-24.098861694335938,-39.23974609375,2023-09-09 15:44:21.2470,1694292261.246778,0.03883373737335205,-0.01386496052145958,-0.015971623361110687,-1.0149686932563782,0.07180782407522202,-0.028412029147148132,
0,2023-09-09 15:44:04.2080,01:35,10,1,2023-09-09 15:44:21.8100,1694292261.809641,-0.0014381069922819734,-0.00657534459605813,-0.001535312389023602,0.0184326171875,0.0015106201171875,-1.0007171630859375,104.28074645996094,-24.140045166015625,-39.11470031738281,2023-09-09 15:44:21.3470,1694292261.3466501,-0.03943057358264923,-0.006942072883248329,-0.007671015337109566,-1.0182493925094604,0.051635757088661194,-0.00770583376288414,
0,2023-09-09 15:44:04.2080,01:35,10,1,2023-09-09 15:44:21.9120,1694292261.911617,-0.00119575927965343,-0.0009962886106222868,-0.0046453517861664295,0.01849365234375,0.0013275146484375,-1.001007080078125,104.31935119628906,-23.9202880859375,-39.353363037109375,2023-09-09 15:44:21.4460,1694292261.446434,0.01810855232179165,-0.021453771740198135,0.020410319790244102,-1.0182493925094604,0.0204467810690403,-0.007171764969825745,
0,2023-09-09 15:44:04.2080,01:35,10,1,2023-09-09 15:44:22.0090,1694292262.008986,4.207794336252846e-05,-0.003287672298029065,-0.00199284334667027,0.0181884765625,0.0019378662109375,-1.0004425048828125,104.55430603027344,-24.353485107421875,-38.89756774902344,2023-09-09 15:44:21.5500,1694292261.5501618,0.03875717148184776,-0.033573951572179794,0.008691845461726189,-1.0013426542282104,0.055023193359375,-0.05726642906665802,
0,2023-09-09 15:44:04.2080,01:35,10,1,2023-09-09 15:44:22.1110,1694292262.11148,-0.0008772452711127698,-0.004703941289335489,-0.0007177218794822693,0.0185089111328125,0.0018310546875,-1.0012054443359375,104.62614440917969,-24.307388305664062,-39.192138671875,2023-09-09 15:44:21.6460,1694292261.646079,-0.026423895731568336,-0.010753455571830273,0.027992140501737595,-1.0006559491157532,-0.016357436776161194,0.01057421788573265,
0,2023-09-09 15:44:04.2080,01:35,10,1,2023-09-09 15:44:22.2090,1694292262.2092562,-0.0039009982720017433,-0.006623547989875078,-0.0019403791520744562,0.0176239013671875,0.001556396484375,-1.0004425048828125,104.46957397460938,-24.108734130859375,-39.2132568359375,2023-09-09 15:44:21.7460,1694292261.7462301,-0.025323279201984406,0.007409967482089996,-0.005196805577725172,-0.9833372235298157,0.009948685765266418,-0.018173381686210632,
0,2023-09-09 15:44:04.2080,01:35,10,1,2023-09-09 15:44:22.3090,1694292262.3094049,-0.0008103998843580484,-0.004228833597153425,-0.0021350563038140535,0.0170440673828125,0.002166748046875,-1.001373291015625,104.38641357421875,-23.978240966796875,-38.929229736328125,2023-09-09 15:44:21.8460,1694292261.845824,0.055249132215976715,-0.022269232198596,0.0030584277119487524,-0.9810941219329834,0.0978545993566513,-0.04342665523290634,
0,2023-09-09 15:44:04.2080,01:35,10,1,2023-09-09 15:44:22.4100,1694292262.410293,-0.0002596582053229213,-0.005333246197551489,-0.003439472522586584,0.0179290771484375,0.001678466796875,-1.0003662109375,104.29898071289062,-24.144699096679688,-39.06172180175781,2023-09-09 15:44:21.9460,1694292261.945679,0.010382921434938908,-0.012406880967319012,-0.002778589027002454,-1.016036868095398,0.0734557956457138,-0.0044710226356983185,
0,2023-09-09 15:44:04.2080,01:35,10,1,2023-09-09 15:44:22.5120,1694292262.5115,-0.0007526093395426869,-0.0049161952920258045,-0.0006479470757767558,0.0179290771484375,0.0016326904296875,-1.000946044921875,104.36375427246094,-24.198165893554688,-39.43006896972656,2023-09-09 15:44:22.0460,1694292262.045526,-0.00886161345988512,0.01362765021622181,0.042256128042936325,-1.0233762860298157,0.03024294227361679,0.01403791829943657,
0,2023-09-09 15:44:04.2080,01:35,10,1,2023-09-09 15:44:22.6100,1694292262.6099,-0.003318032482638955,-0.006118080113083124,-0.0013403689954429865,0.018646240234375,0.0028228759765625,-1.00067138671875,104.36375427246094,-24.198165893554688,-39.43006896972656,2023-09-09 15:44:22.1450,1694292262.1453562,0.03080197609961033,0.012386484071612358,0.038443781435489655,-1.0033416152000427,0.03114321082830429,-0.04267897829413414,
0,2023-09-09 15:44:04.2080,01:35,10,1,2023-09-09 15:44:22.7120,1694292262.711679,0.002386458683758974,-0.0031473238486796618,-0.00015952334797475487,0.0178985595703125,0.0014190673828125,-1.0007171630859375,104.33366394042969,-24.063369750976562,-39.66937255859375,2023-09-09 15:44:22.2450,1694292262.245161,0.0778065025806427,-0.03334398567676544,0.039082009345293045,-0.9779661297798157,0.017288196831941605,-0.05664081871509552,
0,2023-09-09 15:44:04.2080,01:35,10,1,2023-09-09 15:44:22.8110,1694292262.810957,-0.002409894485026598,-0.004218713380396366,-0.0015986956423148513,0.0181884765625,0.001983642578125,-1.0017852783203125,104.36553955078125,-24.265625,-39.38330078125,2023-09-09 15:44:22.3450,1694292262.344973,0.03101363033056259,-0.018594469875097275,0.00764435762539506,-0.9823301434516907,0.0433349572122097,-0.03939834237098694,
0,2023-09-09 15:44:04.2080,01:35,10,1,2023-09-09 15:44:22.9100,1694292262.910334,0.001865277998149395,-0.0049185920506715775,-0.0027238810434937477,0.018341064453125,0.00177001953125,-1.0010833740234375,104.35765075683594,-24.308868408203125,-39.58380126953125,2023-09-09 15:44:22.4450,1694292262.44496,-0.03492769971489906,-0.0009941691532731056,-0.002350419294089079,-0.9881591796875,0.004486091434955597,-0.022094883024692535,
0,2023-09-09 15:44:04.2080,01:35,10,1,2023-09-09 15:44:23.0090,1694292263.008977,0.0011560781858861446,-0.0031164311803877354,-0.003921504598110914,0.0179595947265625,0.001678466796875,-1.0006866455078125,104.42982482910156,-24.249679565429688,-39.67668151855469,2023-09-09 15:44:22.5450,1694292262.544807,-0.011971586383879185,0.012305524200201035,-0.04135490953922272,-0.965194582939148,0.048004139214754105,-0.03236402943730354,
0,2023-09-09 15:44:04.2080,01:35,10,1,2023-09-09 15:44:23.1090,1694292263.1090698,-0.0005808354471810162,-0.0022274679504334927,-0.003305249148979783,0.018829345703125,0.001251220703125,-1.0003662109375,104.2943115234375,-24.221343994140625,-39.9739990234375,2023-09-09 15:44:22.6450,1694292262.6446571,-0.006346923299133778,0.0014202524907886982,-0.03831920400261879,-0.982574462890625,0.0460052415728569,0.0037687160074710846,
0,2023-09-09 15:44:04.2080,01:35,10,1,2023-09-09 15:44:23.2090,1694292263.209303,-0.0022796657867729664,-0.006315154023468494,-0.0009680590592324734,0.0184326171875,0.002410888671875,-1.00103759765625,104.27565002441406,-24.141464233398438,-39.639434814453125,2023-09-09 15:44:22.7440,1694292262.744338,-0.013692188076674938,0.0050285691395401955,-0.06097564846277237,-0.9709012508392334,0.08789059147238731,-0.027038700878620148,
0,2023-09-09 15:44:04.2080,01:35,10,1,2023-09-09 15:44:23.3110,1694292263.311016,0.0021140172611922026,-0.004096208140254021,-0.0011805793037638068,0.0181427001953125,0.000701904296875,-0.999176025390625,104.31112670898438,-24.183456420898438,-39.46916198730469,2023-09-09 15:44:22.8440,1694292262.844207,0.08447292447090149,-0.03194023296236992,-0.04391394183039665,-0.9765318632125854,0.1295470893383026,-0.061325252056121826,
0,2023-09-09 15:44:04.2080,01:35,10,1,2023-09-09 15:44:23.4120,1694292263.411561,-0.0011073424248024821,-0.00433163158595562,-0.0029768813401460648,0.0180206298828125,0.0023956298828125,-1.00006103515625,104.27171325683594,-24.16644287109375,-39.79156494140625,2023-09-09 15:44:22.9440,1694292262.9440598,0.012989889830350876,-0.0028900736942887306,-0.007410891354084015,-1.0288543105125427,0.04043582081794739,-0.032440345734357834,
0,2023-09-09 15:44:04.2080,01:35,10,1,2023-09-09 15:44:23.5090,1694292263.509229,-0.0025571673177182674,0.0009555422002449632,-0.0008016114588826895,0.018463134765625,0.0014190673828125,-1.0000762939453125,104.56808471679688,-24.183685302734375,-39.613525390625,2023-09-09 15:44:23.0440,1694292263.044016,-0.02993873693048954,-0.006026078946888447,0.010476396419107914,-1.026962161064148,-0.004058852791786194,-0.014572296291589737,
0,2023-09-09 15:44:04.2080,01:35,10,1,2023-09-09 15:44:23.6090,1694292263.6087332,-0.0025571673177182674,0.0009555422002449632,-0.0008016114588826895,0.0177764892578125,0.002166748046875,-1.0008087158203125,104.36883544921875,-24.206039428710938,-39.77030944824219,2023-09-09 15:44:23.1440,1694292263.143683,0.02180382050573826,-0.011469847522675991,0.03357679024338722,-1.007003664970398,0.027313239872455597,-0.03393571265041828,
0,2023-09-09 15:44:04.2080,01:35,10,1,2023-09-09 15:44:23.7120,1694292263.71187,-0.001041295938193798,-0.0016197345685213804,-0.0004953479510731995,0.0174713134765625,0.001953125,-1.0013275146484375,104.39759826660156,-24.210845947265625,-39.314056396484375,2023-09-09 15:44:23.2440,1694292263.243639,0.03170612081885338,-0.01525766123086214,0.031773362308740616,-0.9752958416938782,0.0495605394244194,-0.05545058287680149,
0,2023-09-09 15:44:04.2080,01:35,10,1,2023-09-09 15:44:23.8110,1694292263.811274,-0.00047617321251891553,-0.0006229133578017354,-0.00133850472047925,0.017730712890625,0.00213623046875,-1.0009002685546875,104.43780517578125,-24.15814208984375,-39.33941650390625,2023-09-09 15:44:23.3430,1694292263.3433871,0.0027363200206309557,-0.014309975318610668,-0.016707254573702812,-0.978057861328125,0.0508575402200222,-0.050460949540138245,
0,2023-09-09 15:44:04.2080,01:35,10,1,2023-09-09 15:44:23.9110,1694292263.911335,-0.002341717481613159,-0.005096225067973137,-0.0044080642983317375,0.0183563232421875,0.0018463134765625,-0.9998321533203125,104.36163330078125,-24.030914306640625,-39.23857116699219,2023-09-09 15:44:23.4430,1694292263.443182,0.0028241376858204603,-0.00409155897796154,-0.05598951131105423,-0.9874265789985657,0.0856475830078125,-0.02601635456085205,
0,2023-09-09 15:44:04.2080,01:35,10,1,2023-09-09 15:44:24.0100,1694292264.010164,-0.002341717481613159,-0.005096225067973137,-0.0044080642983317375,0.017852783203125,0.00213623046875,-1.0011749267578125,104.45706176757812,-24.29486083984375,-39.40830993652344,2023-09-09 15:44:23.5470,1694292263.546612,-0.011266847141087055,-0.008530648425221443,-0.028894146904349327,-1.008804202079773,0.044540394097566605,0.009033061563968658,
0,2023-09-09 15:44:04.2080,01:35,10,1,2023-09-09 15:44:24.1110,1694292264.111171,-0.0015632755821570754,-0.003097256412729621,-0.002734001260250807,0.0179443359375,0.001495361328125,-1.000701904296875,104.51014709472656,-24.30010986328125,-39.146270751953125,2023-09-09 15:44:23.6430,1694292263.642693,0.016602933406829834,0.001997759100049734,-0.022661583498120308,-0.9983823895454407,0.0813751295208931,-0.04681411199271679,
0,2023-09-09 15:44:04.2080,01:35,10,1,2023-09-09 15:44:24.2110,1694292264.211369,-0.0008311725687235594,-0.0026876621413975954,-0.0014114753575995564,0.018035888671875,0.002349853515625,-1.001434326171875,104.35871887207031,-24.203369140625,-39.40692138671875,2023-09-09 15:44:23.7430,1694292263.74264,-0.014645599760115147,0.03527089208364487,0.014096997678279877,-1.0032042264938354,0.009704604744911194,-0.010452410206198692,
0,2023-09-09 15:44:04.2080,01:35,10,1,2023-09-09 15:44:24.3120,1694292264.311578,-0.004338023252785206,-0.006917028222233057,-0.002638926263898611,0.0178070068359375,0.0014801025390625,-1.00140380859375,104.35304260253906,-24.441879272460938,-39.26902770996094,2023-09-09 15:44:23.8430,1694292263.842582,0.008387081325054169,0.05109100043773651,0.02038775011897087,-0.995986819267273,0.05389401316642761,-0.057861462235450745,
0,2023-09-09 15:44:04.2080,01:35,10,1,2023-09-09 15:44:24.4110,1694292264.411058,-0.0013994910987094045,-0.00279125920496881,-0.00236328924074769,0.0182952880859375,0.00225830078125,-1.0010986328125,104.25752258300781,-24.08770751953125,-39.54132080078125,2023-09-09 15:44:23.9430,1694292263.9425411,0.0039609745144844055,0.042612962424755096,0.011649352498352528,-0.9805906414985657,0.003982521593570709,-0.02378857508301735,
0,2023-09-09 15:44:04.2080,01:35,10,1,2023-09-09 15:44:24.5100,1694292264.5096378,0.0001073253879440017,-0.00512871565297246,-0.002353701740503311,0.0180511474609375,0.0019073486328125,-1.0019378662109375,104.58085632324219,-24.355682373046875,-39.56410217285156,2023-09-09 15:44:24.0420,1694292264.042278,0.00971866212785244,0.012321236543357372,0.008539346046745777,-0.9778136014938354,0.038955673575401306,-0.03514114022254944,
0,2023-09-09 15:44:04.2080,01:35,10,1,2023-09-09 15:44:24.6100,1694292264.610477,-3.7550569686573e-05,-0.003978496417403221,-0.0034112429711967707,0.0173187255859375,0.002044677734375,-1.001220703125,104.50303649902344,-24.025619506835938,-39.730926513671875,2023-09-09 15:44:24.1420,1694292264.142117,-0.003965191543102264,-0.012679987587034702,-0.020162606611847878,-0.9784696698188782,0.05639645829796791,-0.07815570756793022,
0,2023-09-09 15:44:04.2080,01:35,10,1,2023-09-09 15:44:24.7110,1694292264.711148,-0.000966727442573756,-0.004930576309561729,-0.002778475871309638,0.018157958984375,0.0020599365234375,-1.0001068115234375,104.44137573242188,-24.185836791992188,-39.407012939453125,2023-09-09 15:44:24.2420,1694292264.2417998,-0.036339376121759415,0.003294984810054302,-0.04661858081817627,-0.9872893691062927,0.006118781864643097,-0.039856117218732834,
0,2023-09-09 15:44:04.2080,01:35,10,1,2023-09-09 15:44:24.8110,1694292264.810821,0.0007566040731035173,-0.005756955128163099,-0.001812014845199883,0.0181427001953125,0.001434326171875,-1.0015106201171875,104.38050842285156,-24.094009399414062,-39.6458740234375,2023-09-09 15:44:24.3420,1694292264.341889,-0.009118475019931793,0.006228855811059475,0.03242553770542145,-1.0109710693359375,0.0307159386575222,-0.014938481152057648,
0,2023-09-09 15:44:04.2080,01:35,10,1,2023-09-09 15:44:24.9110,1694292264.911066,-0.0024021712597459555,-0.003969441633671522,-0.00035446672700345516,0.017578125,0.0006866455078125,-1.0011444091796875,104.47908020019531,-23.905990600585938,-39.50703430175781,2023-09-09 15:44:24.4420,1694292264.441661,0.05313198268413544,-0.05757223069667816,0.08975520730018616,-1.0355374813079834,0.025390625,-0.04399123787879944,
0,2023-09-09 15:44:04.2080,01:35,10,1,2023-09-09 15:44:25.0110,1694292265.011102,-0.0006942860782146454,-0.0029438582714647055,-0.0017931063193827868,0.018157958984375,0.0013885498046875,-1.00079345703125,104.25495910644531,-23.953903198242188,-39.550750732421875,2023-09-09 15:44:24.5410,1694292264.541418,0.026925746351480484,0.007503045257180929,0.02620948664844036,-1.0008086562156677,0.0763092003762722,-0.08399976789951324,
0,2023-09-09 15:44:04.2080,01:35,10,1,2023-09-09 15:44:25.1110,1694292265.111208,0.00047643951256759465,-0.003569700988009572,-0.0013169331941753626,0.0187835693359375,0.0013885498046875,-1.000244140625,104.401611328125,-24.239639282226562,-39.4271240234375,2023-09-09 15:44:24.6420,1694292264.64166,0.0473736971616745,0.0015645958483219147,0.03208538517355919,-0.9789731502532959,0.030258160084486008,-0.06571977585554123,
0,2023-09-09 15:44:04.2080,01:35,10,1,2023-09-09 15:44:25.2210,1694292265.220979,-0.0002641855680849403,-0.003919906914234161,-0.001925199176184833,0.018035888671875,0.001953125,-1.0024261474609375,104.26437377929688,-24.101791381835938,-39.26521301269531,2023-09-09 15:44:24.7410,1694292264.7410479,-0.001722543966025114,0.01354149729013443,-0.0028177041094750166,-0.9876861572265625,0.0362548902630806,-0.04438797011971474,
0,2023-09-09 15:44:04.2080,01:35,10,1,2023-09-09 15:44:25.3110,1694292265.311327,-0.0002641855680849403,-0.003919906914234161,-0.001925199176184833,0.0183258056640625,0.001800537109375,-1.001251220703125,104.42411804199219,-24.291229248046875,-39.14863586425781,2023-09-09 15:44:24.8410,1694292264.840975,-0.0001508127897977829,0.012443075887858868,-0.00025517726317048073,-0.9777830243110657,0.02577204629778862,-0.009811583906412125,
0,2023-09-09 15:44:04.2080,01:35,10,1,2023-09-09 15:44:25.4110,1694292265.410911,0.002207494108006358,-0.004204598721116781,-0.004240551497787237,0.0177459716796875,0.0021209716796875,-1.0009307861328125,104.3843994140625,-24.31884765625,-39.404998779296875,2023-09-09 15:44:24.9410,1694292264.940829,0.021184103563427925,-0.03148536756634712,-0.03616194799542427,-0.9877163767814636,0.0365295372903347,-0.054245129227638245,
0,2023-09-09 15:44:04.2080,01:35,10,1,2023-09-09 15:44:25.5110,1694292265.51121,-0.003602990647777915,-0.004037085920572281,-0.0010732539230957627,0.0188751220703125,0.0019378662109375,-1.0001068115234375,104.42022705078125,-24.16387939453125,-39.428253173828125,2023-09-09 15:44:25.0410,1694292265.0406752,0.021679118275642395,-0.00255584716796875,-0.021702012047171593,-1.0050049424171448,0.0521240271627903,-0.03761300817131996,
0,2023-09-09 15:44:04.2080,01:35,10,1,2023-09-09 15:44:25.6110,1694292265.6111279,-0.0035723643377423286,-0.00501180300489068,-0.0026288062799721956,0.0185546875,0.0011444091796875,-1.0012054443359375,104.34420776367188,-24.252944946289062,-39.61651611328125,2023-09-09 15:44:25.1410,1694292265.140511,-0.022834619507193565,0.019827622920274734,0.01638881489634514,-1.0190122723579407,0.026214558631181717,0.0009306520223617554,
0,2023-09-09 15:44:04.2080,01:35,10,1,2023-09-09 15:44:25.7110,1694292265.711045,0.0014804512029513717,-0.0027838023379445076,-0.0015531554818153381,0.0181884765625,0.0016937255859375,-1.0008697509765625,104.42097473144531,-24.1627197265625,-39.52824401855469,2023-09-09 15:44:25.2400,1694292265.240346,-0.0020507785957306623,0.01535004936158657,0.05327519029378891,-0.9973600506782532,0.0226287879049778,-0.03331005945801735,
0,2023-09-09 15:44:04.2080,01:35,10,1,2023-09-09 15:44:25.8110,1694292265.8114839,-0.001029311795718968,-0.005080512259155512,-0.0036093820817768574,0.0179290771484375,0.0016021728515625,-1.0013275146484375,104.29644775390625,-24.098373413085938,-39.44073486328125,2023-09-09 15:44:25.3400,1694292265.340168,-0.0468779057264328,0.014884263277053833,0.013868664391338825,-0.9948118329048157,0.0451049879193306,-0.03237925097346306,
0,2023-09-09 15:44:04.2080,01:35,10,1,2023-09-09 15:44:25.9110,1694292265.911035,0.0012687299167737365,-0.006899984087795019,-0.0015563513152301311,0.018310546875,0.002105712890625,-1.00201416015625,104.32763671875,-24.229812622070312,-39.50807189941406,2023-09-09 15:44:25.4400,1694292265.440116,0.03568541258573532,-0.00015008077025413513,-0.0027515911497175694,-0.9830473065376282,0.0759582445025444,-0.061706721782684326,
0,2023-09-09 15:44:04.2080,01:35,10,1,2023-09-09 15:44:26.0090,1694292266.009128,-0.0013821806060150266,-0.005379052832722664,-0.0037670412566512823,0.018157958984375,0.0013885498046875,-1.0014190673828125,104.32528686523438,-24.109375,-39.59883117675781,2023-09-09 15:44:25.5410,1694292265.540807,0.03331413492560387,-0.01061390619724989,0.0018322416581213474,-0.9838559627532959,0.0073852501809597015,-0.046936169266700745,
0,2023-09-09 15:44:04.2080,01:35,10,1,2023-09-09 15:44:26.1110,1694292266.1111221,-0.0022482406347990036,-0.0024588967207819223,-0.0011643340112641454,0.018524169921875,0.0016021728515625,-1.0014495849609375,104.54948425292969,-24.492279052734375,-39.65296936035156,2023-09-09 15:44:25.6400,1694292265.639905,-0.019325371831655502,0.012267973273992538,0.012524833902716637,-0.9957427382469177,0.032867420464754105,-0.01817335933446884,
0,2023-09-09 15:44:04.2080,01:35,10,1,2023-09-09 15:44:26.2110,1694292266.2108622,-0.0002878876985050738,-0.005723399575799704,-0.00045912896166555583,0.01849365234375,0.0027618408203125,-1.001861572265625,104.32789611816406,-24.342269897460938,-39.41883850097656,2023-09-09 15:44:25.7390,1694292265.73944,-0.013719950802624226,-0.004558411426842213,-0.008924798108637333,-0.9566954374313354,0.04612730070948601,-0.05606097728013992,
0,2023-09-09 15:44:04.2080,01:35,10,1,2023-09-09 15:44:26.3110,1694292266.311469,-0.0024346618447452784,-0.005397428758442402,-0.0013020194601267576,0.0179443359375,0.0018310546875,-1.001434326171875,104.53996276855469,-24.443695068359375,-39.778594970703125,2023-09-09 15:44:25.8390,1694292265.839369,0.0023616799153387547,-0.01618630439043045,-0.047290630638599396,-0.9755399823188782,0.06674192100763321,-0.03129591420292854,
0,2023-09-09 15:44:04.2080,01:35,10,1,2023-09-09 15:44:26.4110,1694292266.411089,-0.0006021407316438854,-0.0046964846551418304,-0.002263953210785985,0.018463134765625,0.0013275146484375,-1.00146484375,104.40415954589844,-24.28778076171875,-39.659698486328125,2023-09-09 15:44:25.9390,1694292265.939163,-0.006585408933460712,-0.009432926774024963,-0.028351061046123505,-1.0125274062156677,0.08572390675544739,-0.008743420243263245,
0,2023-09-09 15:44:04.2080,01:35,10,1,2023-09-09 15:44:26.5110,1694292266.5113,-0.0020700751338154078,-0.007193997036665678,0.0006013417732901871,0.017791748046875,0.0016326904296875,-1.001708984375,104.28170776367188,-24.265792846679688,-39.57539367675781,2023-09-09 15:44:26.0390,1694292266.0389938,-0.017067011445760727,-0.03507024794816971,-0.00022971071302890778,-1.0248258709907532,0.03474423289299011,-0.008941836655139923,
0,2023-09-09 15:44:04.2080,01:35,10,1,2023-09-09 15:44:26.6110,1694292266.611135,-0.0020335898734629154,-0.001876995898783207,-0.003707919269800186,0.0182952880859375,0.00244140625,-1.001983642578125,104.30484008789062,-24.2088623046875,-39.15489196777344,2023-09-09 15:44:26.1390,1694292266.139073,-0.002356309676542878,-0.04852759838104248,-0.004190596751868725,-1.0198973417282104,0.032913193106651306,-0.03051779605448246,
0,2023-09-09 15:44:04.2080,01:35,10,1,2023-09-09 15:44:26.7090,1694292266.709169,-8.788431296125054e-05,-0.004322044085711241,-0.0006775081856176257,0.0174560546875,0.0013580322265625,-1.001220703125,104.33251953125,-24.152313232421875,-39.1756591796875,2023-09-09 15:44:26.2390,1694292266.238696,0.007508904207497835,-0.00041213538497686386,-0.010843605734407902,-1.019256591796875,0.0759429894387722,-0.03234875947237015,
0,2023-09-09 15:44:04.2080,01:35,10,1,2023-09-09 15:44:26.8110,1694292266.8109689,-0.0015451660146936774,-0.0007819040911272168,-0.002567553659901023,0.0171356201171875,0.0018463134765625,-1.00048828125,104.47676086425781,-24.202804565429688,-39.16387939453125,2023-09-09 15:44:26.3390,1694292266.338551,0.006625800393521786,0.008432222530245781,0.04193532094359398,-1.0316925048828125,0.018447905778884888,-0.0005647726356983185,
0,2023-09-09 15:44:04.2080,01:35,10,1,2023-09-09 15:44:26.9110,1694292266.910884,-0.0029814087320119143,-0.0037739656399935484,-0.0036458675749599934,0.01800537109375,0.00146484375,-1.0014801025390625,104.39689636230469,-24.2056884765625,-39.43608093261719,2023-09-09 15:44:26.4380,1694292266.438386,0.030429132282733917,0.004937355872243643,0.03876522555947304,-0.9822387099266052,0.002899136394262314,-0.0471040103584528,
0,2023-09-09 15:44:04.2080,01:35,10,1,2023-09-09 15:44:27.0110,1694292267.010983,-0.0001334243715973571,-0.004743356257677078,-0.0017547567840665579,0.017425537109375,0.0024566650390625,-1.0015411376953125,104.39338684082031,-24.129730224609375,-39.055023193359375,2023-09-09 15:44:26.5380,1694292266.5382109,0.002850569551810622,-0.016430916264653206,0.03816358372569084,-0.997329592704773,0.02976987138390541,-0.03364584967494011,
0,2023-09-09 15:44:04.2080,01:35,10,1,2023-09-09 15:44:27.1110,1694292267.1110291,-0.001341434195637703,-0.0009478190331719816,-0.0032895365729928017,0.017425537109375,0.0024566650390625,-1.0015411376953125,104.55386352539062,-24.038604736328125,-39.15440368652344,2023-09-09 15:44:26.6380,1694292266.638231,0.015960779041051865,-6.738957017660141e-05,0.009088389575481415,-0.9850004315376282,0.0713348425924778,-0.06742876209318638,
0,2023-09-09 15:44:04.2080,01:35,10,1,2023-09-09 15:44:27.2110,1694292267.210826,-0.002685531508177519,-0.006603308022022247,-0.0027624969370663166,0.0178375244140625,0.0018310546875,-1.001007080078125,104.48184204101562,-24.292221069335938,-38.90534973144531,2023-09-09 15:44:26.7380,1694292266.7378159,-0.0020206181798130274,0.027727223932743073,-0.03746659681200981,-0.9703214764595032,0.0757903940975666,-0.050903476774692535,
0,2023-09-09 15:44:04.2080,01:35,10,1,2023-09-09 15:44:27.3120,1694292267.311623,-0.0013337110867723823,-0.005855758674442768,-0.0011089402250945568,0.0182342529296875,0.001678466796875,-1.0012054443359375,104.41438293457031,-24.185104370117188,-39.38804626464844,2023-09-09 15:44:26.8380,1694292266.8375459,0.02945241890847683,-0.027171045541763306,0.04641042649745941,-1.0269469022750854,-0.0050201453268527985,0.010711481794714928,
0,2023-09-09 15:44:04.2080,01:35,10,1,2023-09-09 15:44:27.4110,1694292267.411228,0.0003049319493584335,-0.005093561951071024,-0.002264485927298665,0.0185699462890625,0.0024871826171875,-1.0011749267578125,104.52700805664062,-24.304229736328125,-39.4776611328125,2023-09-09 15:44:26.9380,1694292266.937783,0.0012303689727559686,0.034938931465148926,0.043820638209581375,-1.0102384686470032,0.01261904090642929,-0.03805554658174515,
0,2023-09-09 15:44:04.2080,01:35,10,1,2023-09-09 15:44:27.5110,1694292267.511016,-0.0009116000146605074,-0.00401631323620677,-0.0027150926180183887,0.018310546875,0.0016326904296875,-1.0013885498046875,104.36831665039062,-24.325180053710938,-39.317596435546875,2023-09-09 15:44:27.0370,1694292267.0374331,0.04698094353079796,-0.012759882025420666,-0.024137573316693306,-0.9942930936813354,0.029724128544330597,-0.05024733766913414,
0,2023-09-09 15:44:04.2080,01:35,10,1,2023-09-09 15:44:27.6110,1694292267.610965,0.0018993664998561144,-0.00564164062961936,-0.0020927118603140116,0.018341064453125,0.0013580322265625,-1.00115966796875,104.54927062988281,-24.371292114257812,-39.528411865234375,2023-09-09 15:44:27.1370,1694292267.137222,0.005082165356725454,0.0015898956917226315,-0.0719430074095726,-0.9738921523094177,0.0416107103228569,0.009429752826690674,
0,2023-09-09 15:44:04.2080,01:35,10,1,2023-09-09 15:44:27.7100,1694292267.71034,-0.0011251855175942183,-0.005349491722881794,-0.002496180823072791,0.0184326171875,0.0017852783203125,-1.0014190673828125,104.61256408691406,-24.448135375976562,-39.19895935058594,2023-09-09 15:44:27.2370,1694292267.237059,-0.025176869705319405,0.011992069892585278,-0.03940986841917038,-0.9780882596969604,0.0509491004049778,-0.0006257593631744385,
0,2023-09-09 15:44:04.2080,01:35,10,1,2023-09-09 15:44:27.8110,1694292267.811032,-0.0005845638806931674,-0.0030328077264130116,-0.0017331852577626705,0.017913818359375,0.0017852783203125,-1.0015106201171875,104.57524108886719,-24.209197998046875,-39.450897216796875,2023-09-09 15:44:27.3370,1694292267.336866,0.047203052788972855,-0.06407047808170319,0.0010609901510179043,-1.0079649686813354,0.0830230712890625,-0.04356398992240429,
0,2023-09-09 15:44:04.2080,01:35,10,1,2023-09-09 15:44:27.9110,1694292267.910913,0.000964064325671643,-0.004312456585466862,0.0022144184913486242,0.0184173583984375,0.0021820068359375,-1.0010223388671875,104.375,-24.245010375976562,-39.494110107421875,2023-09-09 15:44:27.4370,1694292267.436763,0.03569979593157768,-0.024775531142950058,-0.000783648225478828,-1.0174710750579834,0.0643768236041069,-0.055206429213285446,
0,2023-09-09 15:44:04.2080,01:35,10,1,2023-09-09 15:44:28.0110,1694292268.011059,0.0003890878288075328,-0.003236273303627968,-2.103897168126423e-05,0.0179443359375,0.001708984375,-1.0011444091796875,104.42921447753906,-24.236740112304688,-39.493133544921875,2023-09-09 15:44:27.5430,1694292267.542642,-0.026009773835539818,0.015033399686217308,-0.016254551708698273,-1.0044706463813782,0.013000454753637314,0.00959760881960392,
0,2023-09-09 15:44:04.2080,01:35,10,1,2023-09-09 15:44:28.1110,1694292268.1109529,-0.0004647216119337827,-0.00686110183596611,-0.0012985573848709464,0.017913818359375,0.0018463134765625,-1.002105712890625,104.36575317382812,-24.120986938476562,-39.52210998535156,2023-09-09 15:44:27.6370,1694292267.6367822,-0.027284229174256325,-0.0009879106655716896,0.014698638580739498,-1.0126036405563354,0.0267333984375,0.01119982823729515,
0,2023-09-09 15:44:04.2080,01:35,10,1,2023-09-09 15:44:28.2240,1694292268.223913,-0.00036991306114941835,-0.0028940571937710047,-0.002642388455569744,0.0179443359375,0.0017852783203125,-1.0009613037109375,104.45077514648438,-24.106903076171875,-39.52655029296875,2023-09-09 15:44:27.7360,1694292267.736331,0.01624833419919014,-0.007828772999346256,0.0021145367063581944,-1.0093077421188354,0.0657043606042862,-0.049530137330293655,
0,2023-09-09 15:44:04.2080,01:35,10,1,2023-09-09 15:44:28.3110,1694292268.311078,-0.002712429501116276,-0.005714611150324345,-0.0025563682429492474,0.0179443359375,0.0017852783203125,-1.0009613037109375,104.38955688476562,-24.234603881835938,-39.41160583496094,2023-09-09 15:44:27.8360,1694292267.836115,0.03709462285041809,0.01661505177617073,0.0396135114133358,-1.002609133720398,0.06192013621330261,-0.06689469702541828,
0,2023-09-09 15:44:04.2080,01:35,10,1,2023-09-09 15:44:28.4090,1694292268.408804,-0.002055161399766803,-0.002491120947524905,-0.0034591800067573786,0.018402099609375,0.0023345947265625,-1.0018463134765625,104.36277770996094,-24.092086791992188,-39.14814758300781,2023-09-09 15:44:27.9360,1694292267.9359632,-0.013425472192466259,0.015369623899459839,0.06709104031324387,-1.030654788017273,0.005584694445133209,-0.004333598539233208,
0,2023-09-09 15:44:04.2080,01:35,10,1,2023-09-09 15:44:28.5110,1694292268.510652,-0.000922519015148282,-0.005341768264770508,-0.0022828616201877594,0.0186309814453125,0.0018768310546875,-1.0008087158203125,104.58143615722656,-24.162368774414062,-39.03330993652344,2023-09-09 15:44:28.0360,1694292268.03576,0.0023910412564873695,0.01441674493253231,0.04328317940235138,-1.0100555419921875,0.020385734736919403,-0.02072155848145485,
0,2023-09-09 15:44:04.2080,01:35,10,1,2023-09-09 15:44:28.6110,1694292268.6109052,-0.0007635282818228006,-0.0041553303599357605,-0.001975000137463212,0.0181732177734375,0.001739501953125,-1.001678466796875,104.46826171875,-23.971221923828125,-38.856689453125,2023-09-09 15:44:28.1360,1694292268.135593,0.04571634531021118,-0.014426753856241703,0.025843366980552673,-1.020065188407898,0.0499115064740181,-0.052124202251434326,
0,2023-09-09 15:44:04.2080,01:35,10,1,2023-09-09 15:44:28.7100,1694292268.709742,-0.0021752698812633753,-0.004667988512665033,-0.0023872575256973505,0.0186614990234375,0.0024566650390625,-1.0015411376953125,104.44981384277344,-24.01361083984375,-38.77992248535156,2023-09-09 15:44:28.2350,1694292268.235443,0.011896595358848572,-0.010346791706979275,0.002896507503464818,-0.9952391386032104,0.0803680531680584,-0.09420793503522873,
0,2023-09-09 15:44:04.2080,01:35,10,1,2023-09-09 15:44:28.8110,1694292268.810915,-0.0018911106744781137,-0.0022277343086898327,-0.0020474381744861603,0.018280029296875,0.0013427734375,-1.0012054443359375,104.48777770996094,-23.857681274414062,-39.27116394042969,2023-09-09 15:44:28.3350,1694292268.3354092,-0.06210239976644516,0.03682924434542656,0.03018105961382389,-1.0574949979782104,0.04966731369495392,0.035476524382829666,
0,2023-09-09 15:44:04.2080,01:35,10,1,2023-09-09 15:44:28.9110,1694292268.910812,-0.0007491472060792148,-0.004531901329755783,-0.0012745888670906425,0.0186767578125,0.0017852783203125,-1.00115966796875,104.37406921386719,-24.09002685546875,-39.164337158203125,2023-09-09 15:44:28.4350,1694292268.434986,0.002959892386570573,-0.08095025271177292,0.014197198674082756,-1.0242919921875,0.010681118816137314,0.02056870423257351,
0,2023-09-09 15:44:04.2080,01:35,10,1,2023-09-09 15:44:29.0110,1694292269.010865,-0.0002743055811151862,-0.00612420542165637,-0.0034946000669151545,0.0183258056640625,0.0017242431640625,-1.0015106201171875,104.46968078613281,-24.141845703125,-39.22700500488281,2023-09-09 15:44:28.5350,1694292268.535078,0.01030941866338253,-0.05602652579545975,0.04983082786202431,-0.9854583740234375,0.0437316820025444,-0.04026811383664608,
0,2023-09-09 15:44:04.2080,01:35,10,1,2023-09-09 15:44:29.1110,1694292269.111227,0.000185888638952747,-0.0036914076190441847,-0.002846652874723077,0.018096923828125,0.001495361328125,-1.0012664794921875,104.48832702636719,-24.1622314453125,-38.97932434082031,2023-09-09 15:44:28.6350,1694292268.634612,0.06215989962220192,-0.04715700447559357,0.04919682815670967,-0.9842985272407532,0.057312000542879105,-0.08316062204539776,
0,2023-09-09 15:44:04.2080,01:35,10,1,2023-09-09 15:44:29.2100,1694292269.210246,-0.0024293356109410524,-0.007480553351342678,-0.0020754013676196337,0.01824951171875,0.0023040771484375,-1.00103759765625,104.34036254882812,-24.121566772460938,-39.480255126953125,2023-09-09 15:44:28.7350,1694292268.7345119,-0.010631084442138672,0.030005156993865967,0.03832866623997688,-0.9978485107421875,0.016464214771986008,-0.007888983935117722,
0,2023-09-09 15:44:04.2080,01:35,10,1,2023-09-09 15:44:29.3110,1694292269.310904,-0.004284493625164032,-0.003953462466597557,-0.003367034485563636,0.01885986328125,0.00201416015625,-1.000762939453125,104.51017761230469,-24.256881713867188,-39.50581359863281,2023-09-09 15:44:28.8340,1694292268.834351,0.04611748084425926,0.057467542588710785,0.11011134833097458,-0.9480894804000854,0.05679316073656082,-0.010147228837013245,
0,2023-09-09 15:44:04.2080,01:35,10,1,2023-09-09 15:44:29.4110,1694292269.410797,-0.0024655545130372047,-0.0034583809319883585,-0.0027233485598117113,0.017059326171875,0.001617431640625,-1.0009765625,104.46830749511719,-24.145309448242188,-39.504974365234375,2023-09-09 15:44:28.9340,1694292268.93432,0.056653812527656555,0.031068291515111923,0.008718377910554409,-0.981277346611023,0.1546783223748207,0.006271181628108025,
0,2023-09-09 15:44:04.2080,01:35,10,1,2023-09-09 15:44:29.5110,1694292269.510781,0.0011949603212997317,-0.001113201375119388,-0.0018639464396983385,0.018157958984375,0.001556396484375,-0.99981689453125,104.40827941894531,-24.080581665039062,-39.88224792480469,2023-09-09 15:44:29.0340,1694292269.034141,0.09003300219774246,0.02091299369931221,0.11639786511659622,-1.088866949081421,0.0792846754193306,0.02151474729180336,
0,2023-09-09 15:44:04.2080,01:35,10,1,2023-09-09 15:44:29.6110,1694292269.610701,-0.0025510420091450214,-0.003938016481697559,-0.0012040151050314307,0.0182647705078125,0.001373291015625,-1.0018768310546875,104.40060424804688,-23.92816162109375,-39.16294860839844,2023-09-09 15:44:29.1340,1694292269.134088,0.03475603833794594,0.04494349658489227,0.14465101063251495,-1.069549322128296,0.07594294846057892,-0.02128615975379944,
0,2023-09-09 15:44:04.2080,01:35,10,1,2023-09-09 15:44:29.7090,1694292269.709231,0.0003217098710592836,-0.004548146389424801,3.808320252574049e-05,0.01885986328125,0.0022125244140625,-1.00067138671875,104.49832153320312,-23.973907470703125,-39.55867004394531,2023-09-09 15:44:29.2340,1694292269.233856,0.07379478216171265,0.0811007022857666,0.025521159172058105,-0.9765928387641907,0.1195068210363388,0.02693157270550728,
0,2023-09-09 15:44:04.2080,01:35,10,1,2023-09-09 15:44:29.8110,1694292269.8109422,-0.0009986853692680597,-0.0034525219816714525,-0.0035752938129007816,0.0178985595703125,0.0020599365234375,-1.00103759765625,104.4097900390625,-24.004974365234375,-39.44883728027344,2023-09-09 15:44:29.3340,1694292269.33352,0.20225867629051208,0.10458911210298538,0.16427680850028992,-0.9657135009765625,-0.013595595955848694,-0.05603044480085373,
0,2023-09-09 15:44:04.2080,01:35,10,1,2023-09-09 15:44:29.9110,1694292269.9111838,0.002410160843282938,-0.0033949976786971092,-0.0035712989047169685,0.018402099609375,0.001068115234375,-1.00091552734375,104.43057250976562,-24.101119995117188,-39.34565734863281,2023-09-09 15:44:29.4340,1694292269.4336572,-0.06065450236201286,0.1924690455198288,0.10053248703479767,-0.9109494686126709,0.1505889594554901,-0.04901133477687836,
0,2023-09-09 15:44:04.2080,01:35,10,1,2023-09-09 15:44:30.0110,1694292270.0107222,-0.0020929782185703516,-0.004178766161203384,2.370213405811228e-05,0.018341064453125,0.0018157958984375,-1.001251220703125,104.49273681640625,-24.1495361328125,-39.456298828125,2023-09-09 15:44:29.5330,1694292269.5333319,-0.10318797826766968,0.2663584351539612,0.09544657915830612,-0.9532468318939209,-0.022705137729644775,-0.07658402621746063,
0,2023-09-09 15:44:04.2080,01:35,10,1,2023-09-09 15:44:30.1120,1694292270.1117759,-0.0006788397440686822,-0.003909253980964422,-0.0005113269435241818,0.0182037353515625,0.0021209716796875,-1.00091552734375,104.50160217285156,-24.362823486328125,-38.977691650390625,2023-09-09 15:44:29.6330,1694292269.6333609,0.026435192674398422,0.3450331389904022,0.22293400764465332,-0.7969663739204407,-0.018325820565223694,-0.04583750665187836,
0,2023-09-09 15:44:04.2080,01:35,10,1,2023-09-09 15:44:30.2110,1694292270.210744,-0.0013467605458572507,-0.004346012603491545,-0.002567820018157363,0.017822265625,0.0012664794921875,-1.0007171630859375,104.54560852050781,-24.289932250976562,-38.794158935546875,2023-09-09 15:44:29.7330,1694292269.733186,0.062410835176706314,0.3711327910423279,0.4150581359863281,-0.7354123592376709,-0.060455381870269775,-0.11535657942295074,
0,2023-09-09 15:44:04.2080,01:35,10,1,2023-09-09 15:44:30.3110,1694292270.310789,-0.00019760655413847417,-0.002204830991104245,-0.004461860284209251,0.0175933837890625,0.0013580322265625,-1.000274658203125,104.55418395996094,-24.35052490234375,-39.243927001953125,2023-09-09 15:44:29.8330,1694292269.832943,0.5325943827629089,0.724354088306427,0.6756156086921692,-0.9064024686813354,0.19218435883522034,-0.08100904524326324,
0,2023-09-09 15:44:04.2080,01:35,10,1,2023-09-09 15:44:30.4110,1694292270.410859,-0.001537709147669375,-0.0060118199326097965,-0.002858637133613229,0.018798828125,0.0018768310546875,-1.001373291015625,104.31959533691406,-23.978607177734375,-39.33750915527344,2023-09-09 15:44:29.9330,1694292269.932693,0.0572303868830204,1.0770429372787476,0.9695635437965393,-0.8281859159469604,0.5145720839500427,-0.24295052886009216,
0,2023-09-09 15:44:04.2080,01:35,10,1,2023-09-09 15:44:30.5090,1694292270.509204,-0.002040514023974538,-0.0027561055030673742,-0.002127066720277071,0.0179290771484375,0.0013427734375,-1.001068115234375,104.50082397460938,-24.17840576171875,-39.35784912109375,2023-09-09 15:44:30.0330,1694292270.032549,0.15094469487667084,1.1550031900405884,0.8858458995819092,-0.725112795829773,0.508315920829773,-0.4242554306983948,
0,2023-09-09 15:44:04.2080,01:35,10,1,2023-09-09 15:44:30.6110,1694292270.61094,-7.909588020993397e-05,-0.004536694847047329,-0.0030975225381553173,0.0180511474609375,0.0014190673828125,-1.0007781982421875,104.34925842285156,-24.152008056640625,-39.27276611328125,2023-09-09 15:44:30.1320,1694292270.132365,0.2719390392303467,1.1819175481796265,0.6861297488212585,-0.6633300185203552,0.4419860243797302,-0.44380196928977966,
0,2023-09-09 15:44:04.2080,01:35,10,1,2023-09-09 15:44:30.7110,1694292270.710792,0.00032623723382130265,-0.0038397456519305706,-0.0030338731594383717,0.0179901123046875,0.0022125244140625,-1.0005950927734375,104.35813903808594,-24.333984375,-39.53327941894531,2023-09-09 15:44:30.2320,1694292270.232327,0.353568434715271,0.8298051357269287,0.33414554595947266,-0.5921934843063354,0.6219481229782104,-0.5307617783546448,
0,2023-09-09 15:44:04.2080,01:35,10,1,2023-09-09 15:44:30.8110,1694292270.810893,-0.000291616132017225,-0.0013638047967106104,-0.003079679561778903,0.0177459716796875,0.0015106201171875,-1.0014801025390625,104.34925842285156,-24.119735717773438,-39.644775390625,2023-09-09 15:44:30.3320,1694292270.3321009,0.5358678102493286,0.8441427946090698,0.45895904302597046,-0.5773162245750427,0.5772246718406677,-0.6985321640968323,
0,2023-09-09 15:44:04.2080,01:35,10,1,2023-09-09 15:44:30.9110,1694292270.9108958,-0.0008743157959543169,-0.0037441381718963385,-0.002965163439512253,0.018157958984375,0.001190185546875,-1.000274658203125,104.43418884277344,-24.121505737304688,-39.394317626953125,2023-09-09 15:44:30.4320,1694292270.4319081,0.568318247795105,1.109031081199646,0.45152348279953003,-0.5044707357883453,0.5241546034812927,-0.7442169785499573,
0,2023-09-09 15:44:04.2080,01:35,10,1,2023-09-09 15:44:31.0110,1694292271.0109,-0.0007366303470917046,-0.0037920749746263027,-0.0010037453612312675,0.017547607421875,0.0015106201171875,-1.0002899169921875,104.33546447753906,-24.0877685546875,-39.69422912597656,2023-09-09 15:44:30.5320,1694292270.5321841,1.0841625928878784,1.1413034200668335,0.4658837914466858,-0.2352294623851776,0.4718169569969177,-0.9234314560890198,
0,2023-09-09 15:44:04.2080,01:35,10,1,2023-09-09 15:44:31.1110,1694292271.111061,-0.0015592807903885841,-0.0026969832833856344,-0.002195776207372546,0.0176544189453125,0.0009918212890625,-1.001922607421875,104.42927551269531,-24.3328857421875,-39.870758056640625,2023-09-09 15:44:30.6320,1694292270.631804,0.9937646389007568,1.275102138519287,0.20629821717739105,-0.3828887343406677,0.5122985243797302,-0.8325348496437073,
0,2023-09-09 15:44:04.2080,01:35,10,1,2023-09-09 15:44:31.2090,1694292271.209311,-0.00021411814668681473,-0.003659183392301202,-0.003960120491683483,0.0180206298828125,0.00250244140625,-1.0022430419921875,104.48016357421875,-24.168502807617188,-39.76116943359375,2023-09-09 15:44:30.7310,1694292270.731419,0.12502415478229523,0.8509765863418579,-0.25674688816070557,-0.2024993598461151,0.3916015028953552,-0.9351348876953125,
0,2023-09-09 15:44:04.2080,01:35,10,1,2023-09-09 15:44:31.3110,1694292271.310921,0.0003057308786083013,-0.004179564770311117,-0.0012929646763950586,0.0187225341796875,0.001617431640625,-1.00091552734375,104.50569152832031,-24.169204711914062,-39.571929931640625,2023-09-09 15:44:30.8310,1694292270.831262,0.42472976446151733,0.7127306461334229,-0.5620775818824768,-0.09667965024709702,0.6441954970359802,-0.928924560546875,
0,2023-09-09 15:44:04.2080,01:35,10,1,2023-09-09 15:44:31.4100,1694292271.4095001,0.001535046030767262,-0.004177434369921684,-0.0009139968897216022,0.01800537109375,0.0018310546875,-1.0012969970703125,104.38052368164062,-24.2708740234375,-39.528106689453125,2023-09-09 15:44:30.9310,1694292270.931176,0.05983935296535492,0.5724780559539795,-0.443612664937973,-0.21098323538899422,0.40139761567115784,-0.9470368027687073,
0,2023-09-09 15:44:04.2080,01:35,10,1,2023-09-09 15:44:31.5110,1694292271.5107741,-0.0036538569256663322,-0.003195527009665966,-0.0027893949300050735,0.0182647705078125,0.00115966796875,-1.0007781982421875,104.37577819824219,-24.134109497070312,-39.2471923828125,2023-09-09 15:44:31.0310,1694292271.03111,-0.5875304937362671,0.30184441804885864,-0.03332348167896271,-0.10296626389026642,0.3509520888328552,-0.9026336669921875,
0,2023-09-09 15:44:04.2080,01:35,10,1,2023-09-09 15:44:31.6110,1694292271.6108751,-8.255799184553325e-05,-0.003727892879396677,-0.0034735610242933035,0.018280029296875,0.002655029296875,-1.0001373291015625,104.41023254394531,-24.149871826171875,-39.15950012207031,2023-09-09 15:44:31.1310,1694292271.130968,-0.9421692490577698,-0.02100130170583725,0.33054301142692566,-0.01654049102216959,0.3703307509422302,-0.8979339599609375,
0,2023-09-09 15:44:04.2080,01:35,10,1,2023-09-09 15:44:31.7110,1694292271.710692,-0.00010652644414221868,-0.0048975530080497265,-0.003059173235669732,0.018218994140625,0.001495361328125,-1.00091552734375,104.50990295410156,-24.17242431640625,-39.24114990234375,2023-09-09 15:44:31.2310,1694292271.230763,-0.7948802709579468,0.07151012867689133,-0.07515451312065125,0.03352359711425379,0.5233153700828552,-0.8067932724952698,
0,2023-09-09 15:44:04.2080,01:35,10,1,2023-09-09 15:44:31.8110,1694292271.8105578,-0.00011664645717246458,-0.006056561134755611,-0.0026410568971186876,0.01861572265625,0.00164794921875,-1.0020751953125,104.35816955566406,-24.341018676757812,-38.823822021484375,2023-09-09 15:44:31.3310,1694292271.330672,0.4699912369251251,-0.025856906548142433,-0.009211188182234764,0.05371097827446647,0.5773467421531677,-0.8469086289405823,
0,2023-09-09 15:44:04.2080,01:35,10,1,2023-09-09 15:44:31.9110,1694292271.9106688,0.0016594156622886658,-0.004764928016811609,-0.005361742340028286,0.0176239013671875,0.001434326171875,-1.0010223388671875,104.36563110351562,-24.074722290039062,-39.262359619140625,2023-09-09 15:44:31.4300,1694292271.4303432,-0.1394730806350708,-0.12796050310134888,-0.05549256503582001,0.017410325817763805,0.5119322538375854,-0.8543701171875,
0,2023-09-09 15:44:04.2080,01:35,10,1,2023-09-09 15:44:32.0100,1694292272.009676,-0.0012199940392747521,-0.005416603293269873,-0.0019971043802797794,0.0179595947265625,0.001739501953125,-1.00128173828125,104.54400634765625,-24.370208740234375,-39.10136413574219,2023-09-09 15:44:31.5300,1694292271.530189,-0.12279970198869705,-0.12762628495693207,-0.051155008375644684,-0.011611901223659515,0.5475158095359802,-0.8353424668312073,
0,2023-09-09 15:44:04.2080,01:35,10,1,2023-09-09 15:44:32.1100,1694292272.109767,-0.002419215627014637,-0.0018578211311250925,-0.001958488719537854,0.01800537109375,0.0018157958984375,-1.00048828125,104.54400634765625,-24.370208740234375,-39.10136413574219,2023-09-09 15:44:31.6300,1694292271.63006,0.04181108623743057,-0.12865984439849854,-0.08464092761278152,-0.02975459396839142,0.5465697646141052,-0.8337249755859375,
