SessionID,SessionDate,SessionDuration,SessionFrequency,RecordID,Timestamp,timeIntervalSince1970,GyroX,GyroY,GyroZ,AccX,AccY,AccZ,MagX,MagY,MagZ,WatchTimestamp,WatchtImeIntervalSince1970,WatchGyroX,WatchGyroY,WatchGyroZ,WatchAccX,WatchAccY,WatchAccZ
0,2023-09-09 15:54:18.2070,02:22,10,1,2023-09-09 15:54:18.3110,1694292858.311295,0.00145222176797688,-0.0027084348257631063,-0.0020000338554382324,0.192230224609375,-0.012786865234375,-0.981048583984375,114.11772155761719,-28.293624877929688,-36.06065368652344,2023-09-09 15:54:18.0210,1694292858.0212379,0.016436420381069183,0.02674185484647751,0.004934125579893589,0.1115112230181694,0.7768097519874573,-0.6173552870750427,
0,2023-09-09 15:54:18.2070,02:22,10,1,2023-09-09 15:54:18.4110,1694292858.41066,0.0002407497668173164,-0.003368099918588996,-0.0036075180396437645,0.1925506591796875,-0.01312255859375,-0.9820709228515625,114.04656982421875,-28.146102905273438,-37.41822814941406,2023-09-09 15:54:18.1170,1694292858.1166,-0.04407885670661926,-0.012049484066665173,-0.019385328516364098,0.1187744140625,0.7607421875,-0.6204832792282104,
0,2023-09-09 15:54:18.2070,02:22,10,1,2023-09-09 15:54:18.5110,1694292858.510503,-0.0033459956757724285,-0.003180080559104681,-0.0004010720585938543,0.1929168701171875,-0.0116729736328125,-0.9814453125,113.93380737304688,-27.927490234375,-37.82185363769531,2023-09-09 15:54:18.2210,1694292858.22057,0.023624291643500328,-0.0012245327234268188,0.019450217485427856,0.1063079684972763,0.7737885117530823,-0.6191099882125854,
0,2023-09-09 15:54:18.2070,02:22,10,1,2023-09-09 15:54:18.6100,1694292858.610166,-0.0013451626291498542,-0.004040548112243414,-0.0020413128659129143,0.192596435546875,-0.0133056640625,-0.982208251953125,113.85986328125,-27.908050537109375,-37.94413757324219,2023-09-09 15:54:18.3160,1694292858.316265,0.01435908768326044,-0.0009636757895350456,0.009868063032627106,0.1008300855755806,0.7792969942092896,-0.6160735487937927,
0,2023-09-09 15:54:18.2070,02:22,10,1,2023-09-09 15:54:18.7110,1694292858.71052,-0.0017275925492867827,-0.0018413095967844129,-0.004811000544577837,0.19268798828125,-0.0131072998046875,-0.9819793701171875,114.17669677734375,-28.293319702148438,-36.7320556640625,2023-09-09 15:54:18.4160,1694292858.41609,-0.036951903253793716,0.0010214443318545818,-0.004315332975238562,0.1119384840130806,0.7625275254249573,-0.6259612441062927,
0,2023-09-09 15:54:18.2070,02:22,10,1,2023-09-09 15:54:18.8110,1694292858.8106918,-0.0006463492172770202,-0.0036634444259107113,-0.0023877902422100306,0.19256591796875,-0.0125274658203125,-0.9823150634765625,113.7850341796875,-27.979782104492188,-37.91029357910156,2023-09-09 15:54:18.5160,1694292858.515975,0.05274169519543648,-0.0023920629173517227,0.00034709658939391375,0.11058046668767929,0.7691650390625,-0.6235961318016052,
0,2023-09-09 15:54:18.2070,02:22,10,1,2023-09-09 15:54:18.9110,1694292858.9106631,0.00010492854926269501,-0.004042944870889187,-0.002113218419253826,0.1921844482421875,-0.01129150390625,-0.9811553955078125,113.97312927246094,-27.874832153320312,-38.15863037109375,2023-09-09 15:54:18.6160,1694292858.6160688,0.0805819183588028,-0.01023014448583126,-0.007392215542495251,0.1131591871380806,0.7831116318702698,-0.6186370253562927,
0,2023-09-09 15:54:18.2070,02:22,10,1,2023-09-09 15:54:19.0110,1694292859.010632,-0.0013187973527237773,-0.005139900837093592,8.122641156660393e-05,0.192657470703125,-0.01190185546875,-0.98272705078125,113.93394470214844,-28.098602294921875,-37.5064697265625,2023-09-09 15:54:18.7160,1694292858.715699,-0.033370085060596466,0.00532591063529253,0.0005487311282195151,0.1120452955365181,0.7686310410499573,-0.626541018486023,
0,2023-09-09 15:54:18.2070,02:22,10,1,2023-09-09 15:54:19.1100,1694292859.110215,0.0015198660548776388,-0.006030728109180927,-0.002299373270943761,0.19268798828125,-0.012298583984375,-0.98321533203125,113.86264038085938,-28.091323852539062,-38.177093505859375,2023-09-09 15:54:18.8160,1694292858.815526,-0.03924129158258438,0.00302440719678998,0.0007205050787888467,0.11253359168767929,0.7690125703811646,-0.6238402724266052,
0,2023-09-09 15:54:18.2070,02:22,10,1,2023-09-09 15:54:19.2140,1694292859.214412,0.0004676510870922357,-0.005682386923581362,-0.003748399205505848,0.19281005859375,-0.0122222900390625,-0.98388671875,113.92463684082031,-28.054351806640625,-37.722412109375,2023-09-09 15:54:18.9160,1694292858.915631,-0.026116633787751198,0.00803634338080883,0.00816214270889759,0.10693359375,0.7677002549171448,-0.6240233182907104,
0,2023-09-09 15:54:18.2070,02:22,10,1,2023-09-09 15:54:19.3140,1694292859.314179,-0.0002767024270724505,-0.004954811185598373,-0.0009195895399898291,0.192718505859375,-0.0131072998046875,-0.983306884765625,113.61140441894531,-27.739013671875,-38.53260803222656,2023-09-09 15:54:19.0150,1694292859.0153,0.01807646080851555,-0.013641388155519962,-0.007305796258151531,0.11311342567205429,0.7772369980812073,-0.6187896132469177,
0,2023-09-09 15:54:18.2070,02:22,10,1,2023-09-09 15:54:19.4140,1694292859.414453,-0.0014423680258914828,-0.0037705034483224154,7.909588020993397e-05,0.19256591796875,-0.0124359130859375,-0.9816131591796875,113.7357177734375,-27.60992431640625,-38.54243469238281,2023-09-09 15:54:19.1150,1694292859.1153011,0.0050801681354641914,-0.0005704602226614952,-0.001095005078241229,0.1125946193933487,0.7787781357765198,-0.6203002333641052,
0,2023-09-09 15:54:18.2070,02:22,10,1,2023-09-09 15:54:19.5140,1694292859.514123,-0.0025363946333527565,-0.004006992094218731,-0.003236273303627968,0.192779541015625,-0.01153564453125,-0.9813079833984375,113.60716247558594,-27.636474609375,-38.29676818847656,2023-09-09 15:54:19.2150,1694292859.215095,0.014721610583364964,-0.00403177086263895,-0.007235322147607803,0.1089782640337944,0.7716370224952698,-0.6225585341453552,
0,2023-09-09 15:54:18.2070,02:22,10,1,2023-09-09 15:54:19.6140,1694292859.613984,-0.0010511496802791953,-0.0027869981713593006,-0.002369148191064596,0.192962646484375,-0.0118255615234375,-0.981201171875,113.73245239257812,-27.69927978515625,-38.68107604980469,2023-09-09 15:54:19.3150,1694292859.3150969,0.011974292807281017,-0.0027870098128914833,-0.0006093776319175959,0.10928347706794739,0.770126461982727,-0.6235960721969604,
0,2023-09-09 15:54:18.2070,02:22,10,1,2023-09-09 15:54:19.7140,1694292859.7142038,-0.001919073867611587,-0.0031702269334346056,-0.0008455536444671452,0.192901611328125,-0.012542724609375,-0.980987548828125,113.76322937011719,-27.796600341796875,-38.464019775390625,2023-09-09 15:54:19.4150,1694292859.4146109,0.02164636179804802,-0.009575407952070236,-0.009075567126274109,0.11148075014352798,0.7737732529640198,-0.6252440810203552,
0,2023-09-09 15:54:18.2070,02:22,10,1,2023-09-09 15:54:19.8140,1694292859.814094,0.0003430151555221528,-0.0020900487434118986,-0.0023664848413318396,0.1924591064453125,-0.0119476318359375,-0.98199462890625,113.73748779296875,-27.55255126953125,-38.559173583984375,2023-09-09 15:54:19.5150,1694292859.514594,0.014031518250703812,-0.005923546850681305,-0.008568600751459599,0.11103823035955429,0.7684021592140198,-0.6267394423484802,
0,2023-09-09 15:54:18.2070,02:22,10,1,2023-09-09 15:54:19.9140,1694292859.914227,0.00010492854926269501,-0.005561479367315769,-0.0013909690314903855,0.1921844482421875,-0.0129241943359375,-0.9827728271484375,113.72755432128906,-27.9693603515625,-38.332122802734375,2023-09-09 15:54:19.6140,1694292859.614418,0.018239513039588928,-0.0013648821040987968,0.002704326994717121,0.1048431470990181,0.764404296875,-0.6283262968063354,
0,2023-09-09 15:54:18.2070,02:22,10,1,2023-09-09 15:54:20.0140,1694292860.014219,0.0008325041271746159,-0.0035230957437306643,-0.0025326660834252834,0.192474365234375,-0.0119476318359375,-0.9830780029296875,113.71878051757812,-27.886199951171875,-38.47840881347656,2023-09-09 15:54:19.7140,1694292859.714192,0.01978401280939579,-0.002447723411023617,0.002023423323407769,0.1078796312212944,0.7723236680030823,-0.626815676689148,
0,2023-09-09 15:54:18.2070,02:22,10,1,2023-09-09 15:54:20.1150,1694292860.114942,-0.001847701147198677,-0.0026642263401299715,-0.0031041805632412434,0.19342041015625,-0.0131072998046875,-0.9826507568359375,113.77574157714844,-27.957122802734375,-38.72181701660156,2023-09-09 15:54:19.8140,1694292859.814413,-0.016652824357151985,0.010298166424036026,0.007697554305195808,0.1081085354089737,0.7766113877296448,-0.625167727470398,
0,2023-09-09 15:54:18.2070,02:22,10,1,2023-09-09 15:54:20.2140,1694292860.214339,0.0010823087068274617,-0.003608050523325801,-0.0018812569323927164,0.1929473876953125,-0.012115478515625,-0.9827423095703125,113.73837280273438,-27.948486328125,-38.73687744140625,2023-09-09 15:54:19.9140,1694292859.913704,-0.011761795729398727,0.009025441482663155,0.0052428520284593105,0.1110076978802681,0.7692871689796448,-0.624709963798523,
0,2023-09-09 15:54:18.2070,02:22,10,1,2023-09-09 15:54:20.3140,1694292860.3142571,-0.0027025758754462004,-0.0002162486780434847,0.00013928332191426307,0.192138671875,-0.01263427734375,-0.9821929931640625,113.92205810546875,-27.778976440429688,-38.774932861328125,2023-09-09 15:54:20.0140,1694292860.013865,0.010979203507304192,-0.005564154125750065,-0.0028523586224764585,0.1089325025677681,0.7692566514015198,-0.6269683241844177,
0,2023-09-09 15:54:18.2070,02:22,10,1,2023-09-09 15:54:20.4140,1694292860.414156,-2.210423735959921e-05,-0.0038980687968432903,-0.0019438412273302674,0.192718505859375,-0.0129852294921875,-0.9824676513671875,113.892822265625,-27.775299072265625,-39.00636291503906,2023-09-09 15:54:20.1140,1694292860.113518,0.006769144907593727,0.00917724147439003,0.006573567166924477,0.107391357421875,0.7717438340187073,-0.6249389052391052,
0,2023-09-09 15:54:18.2070,02:22,10,1,2023-09-09 15:54:20.5140,1694292860.514202,-0.0007629956235177815,-0.006490922532975674,-0.0012751214671880007,0.192352294921875,-0.012542724609375,-0.98284912109375,113.85731506347656,-27.7252197265625,-38.5311279296875,2023-09-09 15:54:20.2140,1694292860.213711,-0.05241961032152176,-0.001029057428240776,-0.012776428833603859,0.1107177808880806,0.7645264267921448,-0.6263426542282104,
0,2023-09-09 15:54:18.2070,02:22,10,1,2023-09-09 15:54:20.6140,1694292860.614478,0.0005451490869745612,-0.005329518113285303,-0.002368615474551916,0.193359375,-0.01239013671875,-0.9821014404296875,113.70722961425781,-27.580841064453125,-38.83638000488281,2023-09-09 15:54:20.3130,1694292860.3132648,-0.0067863455042243,-0.016057807952165604,-0.01467712689191103,0.1120453029870987,0.7610474228858948,-0.6277617812156677,
0,2023-09-09 15:54:18.2070,02:22,10,1,2023-09-09 15:54:20.7140,1694292860.71412,0.00012996226723771542,-0.0033598439767956734,-0.001395496423356235,0.19244384765625,-0.0112762451171875,-0.9822540283203125,113.7291259765625,-27.737960815429688,-38.31184387207031,2023-09-09 15:54:20.4130,1694292860.412924,0.06034655123949051,-0.011723911389708519,0.007579609751701355,0.1074371337890625,0.7751923203468323,-0.6284942030906677,
0,2023-09-09 15:54:18.2070,02:22,10,1,2023-09-09 15:54:20.8140,1694292860.814105,0.002630936913192272,-0.004475442226976156,-0.0006551376427523792,0.192596435546875,-0.011383056640625,-0.98236083984375,113.74723815917969,-27.772109985351562,-38.52574157714844,2023-09-09 15:54:20.5130,1694292860.512778,0.10976756364107132,-0.04779496416449547,-0.048619311302900314,0.11221315711736679,0.7852478623390198,-0.6247100234031677,
0,2023-09-09 15:54:18.2070,02:22,10,1,2023-09-09 15:54:20.9140,1694292860.914041,-0.0011036139912903309,-0.00515721132978797,-0.0015571502735838294,0.1928863525390625,-0.012054443359375,-0.98272705078125,113.88713073730469,-27.787246704101562,-38.739349365234375,2023-09-09 15:54:20.6130,1694292860.6134691,-0.003825642168521881,0.012348134070634842,-0.00424169609323144,0.1002655029296875,0.7515411972999573,-0.6372680068016052,
0,2023-09-09 15:54:18.2070,02:22,10,1,2023-09-09 15:54:21.0140,1694292861.014113,-0.0005536712124012411,-0.005764412228018045,-0.003479952458292246,0.1925506591796875,-0.0122222900390625,-0.9831085205078125,113.57418823242188,-27.724716186523438,-38.70649719238281,2023-09-09 15:54:20.7130,1694292860.712504,0.060613468289375305,-0.016128912568092346,-0.02721555531024933,0.1005706936120987,0.7501373887062073,-0.641799807548523,
0,2023-09-09 15:54:18.2070,02:22,10,1,2023-09-09 15:54:21.1150,1694292861.115487,-0.0006021407316438854,-0.004160390235483646,-0.0014692660188302398,0.1923675537109375,-0.0121612548828125,-0.98321533203125,113.61965942382812,-27.596939086914062,-38.64898681640625,2023-09-09 15:54:20.8120,1694292860.812327,0.12818877398967743,-0.04515444114804268,-0.05449804291129112,0.1030731201171875,0.7637177109718323,-0.6421507596969604,
0,2023-09-09 15:54:18.2070,02:22,10,1,2023-09-09 15:54:21.2140,1694292861.214116,-0.0008780442294664681,-0.003233876544982195,-0.002907639369368553,0.1929473876953125,-0.012542724609375,-0.98260498046875,113.66984558105469,-27.739227294921875,-38.59236145019531,2023-09-09 15:54:20.9120,1694292860.912091,0.1959911435842514,-0.004622993059456348,-0.005214315839111805,0.07977294921875,0.7272186875343323,-0.6550292372703552,
0,2023-09-09 15:54:18.2070,02:22,10,1,2023-09-09 15:54:21.3140,1694292861.313729,-0.0014745922526344657,-0.0015361113473773003,-0.0012306467397138476,0.1929779052734375,-0.012420654296875,-0.9820556640625,113.88746643066406,-27.782684326171875,-38.80461120605469,2023-09-09 15:54:21.0120,1694292861.012086,0.023124415427446365,0.016957400366663933,0.0435868464410305,0.0899963527917862,0.7681122422218323,-0.6503295302391052,
0,2023-09-09 15:54:18.2070,02:22,10,1,2023-09-09 15:54:21.4140,1694292861.414079,0.0012042814632877707,-0.004093545023351908,-0.00170788518153131,0.192291259765625,-0.0120391845703125,-0.98138427734375,113.85690307617188,-27.734176635742188,-38.4593505859375,2023-09-09 15:54:21.1120,1694292861.111872,0.09865086525678635,-0.03234303742647171,-0.009903543628752232,0.11341860145330429,0.7386017441749573,-0.657913088798523,
0,2023-09-09 15:54:18.2070,02:22,10,1,2023-09-09 15:54:21.5140,1694292861.5140262,-0.002016811864450574,-0.0029025792609900236,-0.004277036525309086,0.1936492919921875,-0.0120391845703125,-0.9837646484375,113.85281372070312,-27.951675415039062,-38.512237548828125,2023-09-09 15:54:21.2120,1694292861.211664,0.0982443317770958,-0.06741367280483246,-0.06684611737728119,0.0913085862994194,0.734893798828125,-0.6698607206344604,
0,2023-09-09 15:54:18.2070,02:22,10,1,2023-09-09 15:54:21.6150,1694292861.614801,-0.0011299792677164078,-0.002442385070025921,-0.001660214620642364,0.1928863525390625,-0.01275634765625,-0.9830780029296875,113.83869934082031,-27.664581298828125,-38.75093078613281,2023-09-09 15:54:21.3110,1694292861.311413,0.03394124284386635,0.008662985637784004,-0.018255282193422318,0.0797424167394638,0.722686767578125,-0.678970217704773,
0,2023-09-09 15:54:18.2070,02:22,10,1,2023-09-09 15:54:21.7110,1694292861.71142,-0.001454618526622653,-0.003914846573024988,-9.161273919744417e-05,0.19293212890625,-0.0115509033203125,-0.983734130859375,113.76249694824219,-27.7872314453125,-38.689117431640625,2023-09-09 15:54:21.4110,1694292861.411423,0.04203585535287857,0.010369937866926193,0.001819125609472394,0.0813446044921875,0.724197506904602,-0.6818694472312927,
0,2023-09-09 15:54:18.2070,02:22,10,1,2023-09-09 15:54:21.8140,1694292861.8140302,0.001347559504210949,-0.0034490597900003195,-0.0018482337472960353,0.192901611328125,-0.01129150390625,-0.9832916259765625,113.95758056640625,-27.828720092773438,-38.84722900390625,2023-09-09 15:54:21.5110,1694292861.511228,-0.18624931573867798,0.07164914160966873,0.02795235812664032,0.0910034105181694,0.7122803926467896,-0.6808165311813354,
0,2023-09-09 15:54:18.2070,02:22,10,1,2023-09-09 15:54:21.9140,1694292861.91415,0.002171807922422886,-0.0027691549621522427,-0.002100435085594654,0.192657470703125,-0.012481689453125,-0.9831695556640625,113.751708984375,-27.997085571289062,-38.73506164550781,2023-09-09 15:54:21.6110,1694292861.611047,-0.0007411693222820759,-0.023803744465112686,-0.011734500527381897,0.09613037109375,0.7560425400733948,-0.6607207655906677,
0,2023-09-09 15:54:18.2070,02:22,10,1,2023-09-09 15:54:22.0140,1694292862.013908,-0.0022945795208215714,-0.0032442628871649504,-0.0021140172611922026,0.1928253173828125,-0.012237548828125,-0.982940673828125,113.81416320800781,-27.771377563476562,-38.57325744628906,2023-09-09 15:54:21.7110,1694292861.7110791,-0.05738979950547218,0.005259864963591099,0.003044579178094864,0.0892181545495987,0.7321930527687073,-0.6662291288375854,
0,2023-09-09 15:54:18.2070,02:22,10,1,2023-09-09 15:54:22.1140,1694292862.1139631,0.001446362817659974,-0.005798234138637781,-0.0007222492713481188,0.192108154296875,-0.012481689453125,-0.9824981689453125,113.73170471191406,-27.554901123046875,-38.36491394042969,2023-09-09 15:54:21.8110,1694292861.810915,-0.02642955631017685,0.0014684554189443588,0.009210096672177315,0.0923919826745987,0.7430267930030823,-0.661208987236023,
0,2023-09-09 15:54:18.2070,02:22,10,1,2023-09-09 15:54:22.2140,1694292862.213965,-0.0008801747462712228,-0.004257329273968935,-0.0001294296234846115,0.1929931640625,-0.0117645263671875,-0.982513427734375,113.80534362792969,-27.704788208007812,-38.167816162109375,2023-09-09 15:54:21.9100,1694292861.9104981,0.04663127288222313,-0.005571478046476841,0.0008869526791386306,0.0942993089556694,0.7495118379592896,-0.6574401259422302,
0,2023-09-09 15:54:18.2070,02:22,10,1,2023-09-09 15:54:22.3140,1694292862.313891,-0.0008900284301489592,-0.0046365633606910706,-0.0034706315491348505,0.1923675537109375,-0.012603759765625,-0.981536865234375,113.70967102050781,-27.651214599609375,-38.46099853515625,2023-09-09 15:54:22.0100,1694292862.010466,-0.0028563847299665213,0.007953385822474957,0.006659487262368202,0.0888214260339737,0.7327576279640198,-0.6638030409812927,
0,2023-09-09 15:54:18.2070,02:22,10,1,2023-09-09 15:54:22.4140,1694292862.41403,0.00014434332842938602,-0.006623814348131418,0.00047936898772604764,0.1922760009765625,-0.0117340087890625,-0.981292724609375,113.81999206542969,-27.778457641601562,-37.871429443359375,2023-09-09 15:54:22.1100,1694292862.110242,0.017150679603219032,-0.007792155258357525,-0.004055374767631292,0.0961303859949112,0.7494049668312073,-0.6585997343063354,
0,2023-09-09 15:54:18.2070,02:22,10,1,2023-09-09 15:54:22.5140,1694292862.514161,-0.0012865731259807944,-0.006610231939703226,-0.0034911378752440214,0.192108154296875,-0.0126953125,-0.9820098876953125,113.80342102050781,-27.874542236328125,-38.4022216796875,2023-09-09 15:54:22.2100,1694292862.210036,-0.03516532480716705,0.01020242553204298,0.004111108835786581,0.0919952541589737,0.7337036728858948,-0.6653441786766052,
0,2023-09-09 15:54:18.2070,02:22,10,1,2023-09-09 15:54:22.6150,1694292862.61478,5.5926382628967986e-05,-0.006914897821843624,-0.00398568669334054,0.19219970703125,-0.0118408203125,-0.9826812744140625,113.73353576660156,-27.422653198242188,-38.1429443359375,2023-09-09 15:54:22.3100,1694292862.3097181,0.02117624692618847,-0.0008787214756011963,-5.457550287246704e-07,0.0936737209558487,0.7431182861328125,-0.6618956327438354,
0,2023-09-09 15:54:18.2070,02:22,10,1,2023-09-09 15:54:22.7140,1694292862.7139912,0.0002790992730297148,-0.005605687852948904,-0.001175252953544259,0.1926422119140625,-0.0119476318359375,-0.9826507568359375,113.75260925292969,-27.781478881835938,-38.13578796386719,2023-09-09 15:54:22.4100,1694292862.4097772,0.044885437935590744,-0.018211904913187027,-0.013540123589336872,0.09173586219549179,0.7422638535499573,-0.6635283827781677,
0,2023-09-09 15:54:18.2070,02:22,10,1,2023-09-09 15:54:22.8140,1694292862.814023,-9.747169679030776e-05,-0.005189169198274612,-0.0034173682797700167,0.19366455078125,-0.0116729736328125,-0.9824981689453125,113.85728454589844,-27.667373657226562,-38.204742431640625,2023-09-09 15:54:22.5100,1694292862.5096269,-0.07387490570545197,0.013787306845188141,0.006754961796104908,0.0923156812787056,0.7408447861671448,-0.6625670790672302,
0,2023-09-09 15:54:18.2070,02:22,10,1,2023-09-09 15:54:22.9140,1694292862.91358,-0.0008362325606867671,-0.005286108236759901,-0.0028421254828572273,0.192657470703125,-0.0126190185546875,-0.983642578125,113.79585266113281,-27.795700073242188,-38.53092956542969,2023-09-09 15:54:22.6090,1694292862.609307,0.014177460223436356,-0.014487739652395248,-0.008594299666583538,0.0944213941693306,0.744125485420227,-0.660598635673523,
0,2023-09-09 15:54:18.2070,02:22,10,1,2023-09-09 15:54:23.0140,1694292863.0139189,0.001055943313986063,-0.006066680885851383,-0.0027614317368716,0.192962646484375,-0.0126495361328125,-0.9835205078125,113.94328308105469,-27.856582641601562,-38.37884521484375,2023-09-09 15:54:22.7090,1694292862.709372,0.0020007549319416285,-0.004955887794494629,-0.00382341374643147,0.09187319874763489,0.7469635605812073,-0.6607054471969604,
0,2023-09-09 15:54:18.2070,02:22,10,1,2023-09-09 15:54:23.1150,1694292863.114785,-0.0002103897277265787,-0.002231196267530322,-0.0016607472207397223,0.192535400390625,-0.0116119384765625,-0.983123779296875,113.96922302246094,-27.900650024414062,-38.58836364746094,2023-09-09 15:54:22.8090,1694292862.809052,0.019109634682536125,-0.009364351630210876,-0.010840543545782566,0.0922699049115181,0.7424927353858948,-0.6621398329734802,
0,2023-09-09 15:54:18.2070,02:22,10,1,2023-09-09 15:54:23.2140,1694292863.2137609,0.0012277172645553946,-0.004763862583786249,-0.002216282533481717,0.19268798828125,-0.01312255859375,-0.9822998046875,113.88539123535156,-27.734512329101562,-38.603973388671875,2023-09-09 15:54:22.9090,1694292862.908877,0.012816318310797215,-0.009907903149724007,-0.007302267476916313,0.0907287672162056,0.741104245185852,-0.6627349257469177,
0,2023-09-09 15:54:18.2070,02:22,10,1,2023-09-09 15:54:23.3140,1694292863.314018,-0.0037140443455427885,-0.0041159153915941715,0.0003432814555708319,0.1917877197265625,-0.0126190185546875,-0.9823150634765625,113.79696655273438,-27.815841674804688,-38.76911926269531,2023-09-09 15:54:23.0090,1694292863.008667,0.00020991230849176645,-0.006937013939023018,-0.00590833555907011,0.0879058986902237,0.7425079941749573,-0.663589358329773,
0,2023-09-09 15:54:18.2070,02:22,10,1,2023-09-09 15:54:23.4140,1694292863.413909,-0.0034112429711967707,-0.0056919739581644535,-0.001996571896597743,0.1924285888671875,-0.0127105712890625,-0.9815521240234375,113.79414367675781,-27.77392578125,-38.67987060546875,2023-09-09 15:54:23.1090,1694292863.108594,-0.011879773810505867,-0.004110867157578468,-0.0038483808748424053,0.08604433387517929,0.7380524277687073,-0.6636809706687927,
0,2023-09-09 15:54:18.2070,02:22,10,1,2023-09-09 15:54:23.5140,1694292863.5138102,-0.0018572885310277343,-0.004736431874334812,-0.0006759102689102292,0.1928558349609375,-0.0127105712890625,-0.9825439453125,113.88502502441406,-27.744430541992188,-38.52803039550781,2023-09-09 15:54:23.2090,1694292863.2085562,-0.0009692688472568989,-0.005346174351871014,-0.006480548996478319,0.0858917161822319,0.7411347031593323,-0.662582278251648,
0,2023-09-09 15:54:18.2070,02:22,10,1,2023-09-09 15:54:23.6150,1694292863.614722,-0.0003587277897167951,-0.006494118366390467,-0.0009326389990746975,0.192291259765625,-0.0123291015625,-0.9840545654296875,113.81346130371094,-27.68548583984375,-38.42515563964844,2023-09-09 15:54:23.3080,1694292863.308175,-0.006247521378099918,-0.007098800502717495,-0.008207276463508606,0.0877075269818306,0.7390747666358948,-0.6654967069625854,
0,2023-09-09 15:54:18.2070,02:22,10,1,2023-09-09 15:54:23.7140,1694292863.71391,-0.0021979068405926228,-0.0023997745011001825,-0.0016500946367159486,0.1927947998046875,-0.012542724609375,-0.9820556640625,113.94186401367188,-27.879058837890625,-38.31158447265625,2023-09-09 15:54:23.4090,1694292863.409003,0.029708415269851685,-0.020824600011110306,-0.013542819768190384,0.08393862098455429,0.7434082627296448,-0.6624144911766052,
0,2023-09-09 15:54:18.2070,02:22,10,1,2023-09-09 15:54:23.8140,1694292863.814064,-0.0015129417879506946,-0.0032205607276409864,-0.0011925635626539588,0.1927642822265625,-0.01239013671875,-0.9815216064453125,113.82518005371094,-27.721893310546875,-38.6007080078125,2023-09-09 15:54:23.5080,1694292863.5079489,0.009144950658082962,0.0017832410521805286,0.001662964466959238,0.0812378078699112,0.7393189072608948,-0.6643981337547302,
0,2023-09-09 15:54:18.2070,02:22,10,1,2023-09-09 15:54:23.9130,1694292863.913075,-8.415588672505692e-05,-0.004512459971010685,-0.004335360135883093,0.1932373046875,-0.0124053955078125,-0.98248291015625,113.81163024902344,-27.481414794921875,-38.43479919433594,2023-09-09 15:54:23.6070,1694292863.6074739,-0.005909765604883432,0.001353939063847065,-0.003189781215041876,0.0830993801355362,0.7407684922218323,-0.6631773710250854,
0,2023-09-09 15:54:18.2070,02:22,10,1,2023-09-09 15:54:24.0140,1694292864.013932,0.0004410194815136492,-0.00523683987557888,-0.0010745854815468192,0.1922454833984375,-0.0121917724609375,-0.9839935302734375,113.68870544433594,-27.558746337890625,-38.43775939941406,2023-09-09 15:54:23.7080,1694292863.707571,-0.007016508840024471,-0.008915876038372517,-0.0075032031163573265,0.0839996486902237,0.7378236055374146,-0.6638488173484802,
0,2023-09-09 15:54:18.2070,02:22,10,1,2023-09-09 15:54:24.1140,1694292864.1138458,-0.0016098808264359832,-0.0027840686962008476,-0.0018128136871382594,0.1929473876953125,-0.01251220703125,-0.982208251953125,113.68882751464844,-27.6412353515625,-38.525482177734375,2023-09-09 15:54:23.8070,1694292863.807382,-0.0017242084722965956,-0.006824628449976444,-0.007356496062129736,0.0826873928308487,0.7395477294921875,-0.6658324003219604,
0,2023-09-09 15:54:18.2070,02:22,10,1,2023-09-09 15:54:24.2140,1694292864.2138438,0.0009022789890877903,-0.002406965009868145,-0.00138058268930763,0.1929168701171875,-0.0116119384765625,-0.982452392578125,113.74346923828125,-27.69970703125,-38.15452575683594,2023-09-09 15:54:23.9070,1694292863.9072719,0.007652648258954287,-0.012228980660438538,-0.0086758928373456,0.077056884765625,0.7394105195999146,-0.6656646132469177,
0,2023-09-09 15:54:18.2070,02:22,10,1,2023-09-09 15:54:24.3140,1694292864.3138928,-0.0011712582781910896,-0.005823534447699785,-0.001058872789144516,0.1926727294921875,-0.013336181640625,-0.98260498046875,113.85003662109375,-27.569107055664062,-38.42591857910156,2023-09-09 15:54:24.0070,1694292864.007328,-0.008496826514601707,-0.0032609188929200172,-0.0033571275416761637,0.0797119140625,0.7380677461624146,-0.6670073866844177,
0,2023-09-09 15:54:18.2070,02:22,10,1,2023-09-09 15:54:24.4140,1694292864.414211,-0.0011496866354718804,-0.005790511146187782,-0.002650377806276083,0.1927947998046875,-0.013031005859375,-0.98333740234375,113.75279235839844,-27.798629760742188,-38.1021728515625,2023-09-09 15:54:24.1070,1694292864.107219,0.01851341873407364,-0.00529277790337801,0.0008242019102908671,0.07910159975290298,0.7396546006202698,-0.6656493544578552,
0,2023-09-09 15:54:18.2070,02:22,10,1,2023-09-09 15:54:24.5150,1694292864.514522,-0.0005163869354873896,-0.0059899818152189255,-0.00187992537394166,0.1929473876953125,-0.0118255615234375,-0.9827880859375,113.93434143066406,-27.884933471679688,-37.943328857421875,2023-09-09 15:54:24.2070,1694292864.206897,0.0258199330419302,-0.0053572263568639755,0.0012664863606914878,0.0760040357708931,0.7447510361671448,-0.6640624403953552,
0,2023-09-09 15:54:18.2070,02:22,10,1,2023-09-09 15:54:24.6140,1694292864.614007,-0.0016506272368133068,-0.003861050819978118,-4.207794336252846e-05,0.1927337646484375,-0.01153564453125,-0.982574462890625,113.81095886230469,-27.699081420898438,-38.41908264160156,2023-09-09 15:54:24.3070,1694292864.306676,0.005118650384247303,-0.01103934645652771,-0.00783140491694212,0.0773467868566513,0.734756588935852,-0.6671141982078552,
0,2023-09-09 15:54:18.2070,02:22,10,1,2023-09-09 15:54:24.7140,1694292864.713825,-0.001401089015416801,-0.0030775489285588264,-0.0017725999932736158,0.19281005859375,-0.0124053955078125,-0.9842376708984375,113.69145202636719,-27.84014892578125,-38.547454833984375,2023-09-09 15:54:24.4060,1694292864.406444,-0.03265875577926636,0.012325230985879898,0.0031092274002730846,0.0792388841509819,0.7403565049171448,-0.6664122939109802,
0,2023-09-09 15:54:18.2070,02:22,10,1,2023-09-09 15:54:24.8140,1694292864.813891,-0.0020274645648896694,-0.0025486452504992485,-0.00030173614504747093,0.1930999755859375,-0.0121612548828125,-0.9848785400390625,113.89608764648438,-27.814849853515625,-38.52839660644531,2023-09-09 15:54:24.5060,1694292864.506394,-0.01838933862745762,-0.0024029817432165146,-0.007505965884774923,0.0735931470990181,0.7353668808937073,-0.6681365370750427,
0,2023-09-09 15:54:18.2070,02:22,10,1,2023-09-09 15:54:24.9140,1694292864.913826,0.0013102752855047584,-0.005540706682950258,-0.0009398295660503209,0.193359375,-0.01300048828125,-0.983184814453125,113.84526062011719,-28.096450805664062,-38.44139099121094,2023-09-09 15:54:24.6060,1694292864.606244,-0.0061490498483181,-0.004284504801034927,0.0018884011078625917,0.0756225660443306,0.740402340888977,-0.6673735976219177,
0,2023-09-09 15:54:18.2070,02:22,10,1,2023-09-09 15:54:25.0140,1694292865.0138059,-0.00030652983696199954,-0.005558549892157316,-0.002490321872755885,0.19281005859375,-0.0120086669921875,-0.9831085205078125,113.91560363769531,-27.86444091796875,-38.328521728515625,2023-09-09 15:54:24.7060,1694292864.7061992,0.014710159040987492,-0.004359073005616665,-0.003820750629529357,0.0781860277056694,0.7473450303077698,-0.6618956327438354,
0,2023-09-09 15:54:18.2070,02:22,10,1,2023-09-09 15:54:25.1140,1694292865.1138759,-0.0008860336965881288,-0.0033009881153702736,-0.0018807243322953582,0.1923980712890625,-0.01300048828125,-0.9823150634765625,113.90617370605469,-27.926177978515625,-38.38615417480469,2023-09-09 15:54:24.8060,1694292864.805805,-0.02772798016667366,0.013413798063993454,0.012341775000095367,0.0729675441980362,0.7354889512062073,-0.666732668876648,
0,2023-09-09 15:54:18.2070,02:22,10,1,2023-09-09 15:54:25.2140,1694292865.213896,-0.0010479538468644023,-0.0037436054553836584,-0.0035601137205958366,0.1927032470703125,-0.0118865966796875,-0.9824676513671875,113.51412963867188,-27.639144897460938,-38.75947570800781,2023-09-09 15:54:24.9050,1694292864.905453,0.0016271800268441439,0.00872756727039814,0.0028087561950087547,0.0775604397058487,0.7412720322608948,-0.661788821220398,
0,2023-09-09 15:54:18.2070,02:22,10,1,2023-09-09 15:54:25.3140,1694292865.313766,0.0011041465913876891,-0.005930593237280846,-0.0008223841432482004,0.19244384765625,-0.0122833251953125,-0.9813690185546875,113.66390991210938,-27.590911865234375,-38.7041015625,2023-09-09 15:54:25.0060,1694292865.0055618,0.0011655210983008146,0.001703745685517788,0.004928965121507645,0.0780029147863388,0.7440186142921448,-0.6615447402000427,
0,2023-09-09 15:54:18.2070,02:22,10,1,2023-09-09 15:54:25.4140,1694292865.413721,-0.002626942005008459,-0.004904477391391993,0.00039787625428289175,0.1931915283203125,-0.0113525390625,-0.9837646484375,113.5306396484375,-27.62750244140625,-38.76019287109375,2023-09-09 15:54:25.1050,1694292865.105472,-0.022629089653491974,0.013059331104159355,0.0012588964309543371,0.07856752723455429,0.7438812255859375,-0.661727786064148,
0,2023-09-09 15:54:18.2070,02:22,10,1,2023-09-09 15:54:25.5140,1694292865.513824,-0.0025835325941443443,-0.004007524810731411,-0.0002713761059567332,0.1926116943359375,-0.012481689453125,-0.983062744140625,113.60215759277344,-27.658096313476562,-38.515716552734375,2023-09-09 15:54:25.2060,1694292865.20568,-0.006517631933093071,-0.00357823446393013,-0.0024436297826468945,0.0777740329504013,0.7382508516311646,-0.6618651747703552,
0,2023-09-09 15:54:18.2070,02:22,10,1,2023-09-09 15:54:25.6140,1694292865.613992,-0.0033372072502970695,-0.004084756597876549,-0.0014977618120610714,0.1931915283203125,-0.012420654296875,-0.983642578125,113.66963195800781,-27.532424926757812,-38.37696838378906,2023-09-09 15:54:25.3050,1694292865.305073,0.011190857738256454,0.00618717772886157,0.006748104467988014,0.0812072604894638,0.7508545517921448,-0.6585081219673157,
0,2023-09-09 15:54:18.2070,02:22,10,1,2023-09-09 15:54:25.7140,1694292865.71402,4.5540054998127744e-05,-0.005222458858042955,-0.0023670175578445196,0.1932373046875,-0.0125579833984375,-0.98394775390625,113.90664672851562,-27.908676147460938,-38.12406921386719,2023-09-09 15:54:25.4050,1694292865.4049768,-0.009622544050216675,0.005740298889577389,0.004251257516443729,0.08221435546875,0.745956540107727,-0.6597289443016052,
0,2023-09-09 15:54:18.2070,02:22,10,1,2023-09-09 15:54:25.8140,1694292865.81394,0.0004487426485866308,-0.0034703651908785105,-0.0008101335843093693,0.1929473876953125,-0.0128631591796875,-0.983642578125,113.80035400390625,-27.508651733398438,-38.20361328125,2023-09-09 15:54:25.5050,1694292865.504693,-0.012472925707697868,0.006228456273674965,0.0017730528488755226,0.07917788624763489,0.738632321357727,-0.6601104140281677,
0,2023-09-09 15:54:18.2070,02:22,10,1,2023-09-09 15:54:25.9120,1694292865.912098,-0.0054730623960494995,-0.006330067757517099,-0.0012836436508223414,0.1930084228515625,-0.0126953125,-0.983489990234375,113.91839599609375,-27.818893432617188,-37.91651916503906,2023-09-09 15:54:25.6050,1694292865.604663,-0.02851194702088833,0.01188208069652319,0.007925687357783318,0.08375551551580429,0.7428894639015198,-0.6594847440719604,
0,2023-09-09 15:54:18.2070,02:22,10,1,2023-09-09 15:54:26.0120,1694292866.012058,0.001029311795718968,-0.005567338317632675,-0.0017033577896654606,0.1920166015625,-0.011444091796875,-0.9830169677734375,113.90296936035156,-27.787551879882812,-38.16905212402344,2023-09-09 15:54:25.7050,1694292865.704506,0.020566383376717567,-0.0005010850727558136,-0.0019850004464387894,0.08197024464607239,0.7482911348342896,-0.657974123954773,
0,2023-09-09 15:54:18.2070,02:22,10,1,2023-09-09 15:54:26.1140,1694292866.113724,-0.00130920996889472,-0.002689792774617672,-0.0031214910559356213,0.19232177734375,-0.012481689453125,-0.9830474853515625,113.75094604492188,-27.725677490234375,-37.984649658203125,2023-09-09 15:54:25.8040,1694292865.804234,-0.023540224879980087,0.012785425409674644,0.006540910340845585,0.0844573900103569,0.7462006211280823,-0.657638430595398,
0,2023-09-09 15:54:18.2070,02:22,10,1,2023-09-09 15:54:26.2140,1694292866.213804,1.864212754298933e-05,-0.0012607404496520758,-0.0016761935548856854,0.1924896240234375,-0.0119476318359375,-0.9835357666015625,113.90371704101562,-27.658843994140625,-38.35063171386719,2023-09-09 15:54:25.9040,1694292865.904066,-0.02078784815967083,0.004439344629645348,0.0033989124931395054,0.0852355808019638,0.7424164414405823,-0.6573179960250854,
0,2023-09-09 15:54:18.2070,02:22,10,1,2023-09-09 15:54:26.3140,1694292866.313828,-1.864212754298933e-05,-0.005820871330797672,-0.0011821772204712033,0.19287109375,-0.0127716064453125,-0.9835205078125,113.8597412109375,-27.705596923828125,-38.21490478515625,2023-09-09 15:54:26.0040,1694292866.0038838,-0.003868053201586008,0.0025699385441839695,0.001731407712213695,0.0850219875574112,0.7499390840530396,-0.655624270439148,
0,2023-09-09 15:54:18.2070,02:22,10,1,2023-09-09 15:54:26.4130,1694292866.4134588,0.0015273229219019413,-0.003635747591033578,-0.003564641112461686,0.1932525634765625,-0.011932373046875,-0.982879638671875,113.87338256835938,-27.709564208984375,-38.14210510253906,2023-09-09 15:54:26.1040,1694292866.103998,-0.019564323127269745,0.003047443460673094,0.0011346598621457815,0.08842471241950989,0.749343991279602,-0.6541137099266052,
0,2023-09-09 15:54:18.2070,02:22,10,1,2023-09-09 15:54:26.5140,1694292866.513628,0.0018937737913802266,-0.006309028714895248,-0.001044225413352251,0.1927337646484375,-0.0113983154296875,-0.9828338623046875,113.93267822265625,-28.005950927734375,-38.107269287109375,2023-09-09 15:54:26.2040,1694292866.2035332,-0.016973135992884636,0.005272381938993931,0.002769341692328453,0.0836944580078125,0.7462769150733948,-0.6548156142234802,
0,2023-09-09 15:54:18.2070,02:22,10,1,2023-09-09 15:54:26.6140,1694292866.613679,-0.0008282430935651064,-0.003020557342097163,-0.001924932817928493,0.1921234130859375,-0.0123291015625,-0.9824371337890625,113.82859802246094,-27.771820068359375,-38.30003356933594,2023-09-09 15:54:26.3030,1694292866.303335,-0.0024034478701651096,0.008917583152651787,0.008624001406133175,0.0860901027917862,0.7549591660499573,-0.6500243544578552,
0,2023-09-09 15:54:18.2070,02:22,10,1,2023-09-09 15:54:26.7140,1694292866.7142859,0.001350488979369402,-0.0017422399250790477,-0.003936418332159519,0.192657470703125,-0.0128631591796875,-0.9817657470703125,113.85523986816406,-27.76263427734375,-38.29425048828125,2023-09-09 15:54:26.4030,1694292866.403218,0.006549101322889328,0.002134644892066717,0.0026900460943579674,0.0876312181353569,0.7485504746437073,-0.652236819267273,
0,2023-09-09 15:54:18.2070,02:22,10,1,2023-09-09 15:54:26.8140,1694292866.8139439,-0.0024290692526847124,-0.005555886775255203,-0.003367034485563636,0.1927032470703125,-0.0127716064453125,-0.982879638671875,113.63742065429688,-27.58624267578125,-38.205047607421875,2023-09-09 15:54:26.5030,1694292866.503093,-0.002962778089568019,0.007772823795676231,0.004392271861433983,0.0889587476849556,0.7496643662452698,-0.6521605849266052,
0,2023-09-09 15:54:18.2070,02:22,10,1,2023-09-09 15:54:26.9140,1694292866.9137568,0.0009962886106222868,-0.004040281753987074,-0.0006000102148391306,0.1930694580078125,-0.011199951171875,-0.9829864501953125,113.91256713867188,-27.685699462890625,-38.253570556640625,2023-09-09 15:54:26.6030,1694292866.603139,0.006705961190164089,-0.0007373075932264328,-0.0005314468871802092,0.09022524207830429,0.7496644258499146,-0.6521910429000854,
0,2023-09-09 15:54:18.2070,02:22,10,1,2023-09-09 15:54:27.0100,1694292867.0101209,0.0002644518972374499,-0.004447212442755699,-0.0020152139477431774,0.1930694580078125,-0.011199951171875,-0.9829864501953125,113.69033813476562,-27.529815673828125,-38.35011291503906,2023-09-09 15:54:26.7030,1694292866.702894,-0.011889560148119926,0.005541627760976553,0.0017558089457452297,0.0883483737707138,0.7511444687843323,-0.6527708172798157,
0,2023-09-09 15:54:18.2070,02:22,10,1,2023-09-09 15:54:27.1140,1694292867.1139688,0.0014796522445976734,-0.0033393376506865025,-0.005120459944009781,0.1921844482421875,-0.011322021484375,-0.982818603515625,113.68292236328125,-27.405181884765625,-38.413726806640625,2023-09-09 15:54:26.8030,1694292866.802764,-0.002764639211818576,0.015191592276096344,0.01017865538597107,0.0889587476849556,0.7502747178077698,-0.651443362236023,
0,2023-09-09 15:54:18.2070,02:22,10,1,2023-09-09 15:54:27.2140,1694292867.213688,-0.0010066748363897204,-0.003952929750084877,-0.0017060210229828954,0.1921844482421875,-0.011322021484375,-0.982818603515625,113.62771606445312,-27.523086547851562,-38.491912841796875,2023-09-09 15:54:26.9020,1694292866.902433,0.0045149787329137325,0.0015253140591084957,-0.0025225593708455563,0.0911560207605362,0.7559204697608948,-0.649978518486023,
0,2023-09-09 15:54:18.2070,02:22,10,1,2023-09-09 15:54:27.3130,1694292867.3134851,-0.0001328917423961684,-0.002965429797768593,-0.0020061591640114784,0.1933441162109375,-0.0112152099609375,-0.9830474853515625,113.69219970703125,-27.738937377929688,-38.47370910644531,2023-09-09 15:54:27.0020,1694292867.0021749,-0.0062061091884970665,0.009469790384173393,0.004910589195787907,0.0900115817785263,0.7487335801124573,-0.6534727811813354,
0,2023-09-09 15:54:18.2070,02:22,10,1,2023-09-09 15:54:27.4130,1694292867.4130712,0.00022530343267135322,-0.004234692547470331,-0.004054662771522999,0.1927032470703125,-0.0124053955078125,-0.9814605712890625,113.71482849121094,-27.545425415039062,-38.52775573730469,2023-09-09 15:54:27.1020,1694292867.1020122,-0.002026477362960577,0.0038455924950540066,0.002746871206909418,0.09448245912790298,0.7514954209327698,-0.6513823866844177,
0,2023-09-09 15:54:18.2070,02:22,10,1,2023-09-09 15:54:27.5140,1694292867.5138102,-0.0008684568456374109,-0.005234176758676767,-0.0015225291717797518,0.19232177734375,-0.0127410888671875,-0.9826812744140625,113.80915832519531,-27.823883056640625,-38.39469909667969,2023-09-09 15:54:27.2020,1694292867.201761,0.012623904272913933,0.00030585285276174545,-0.0005273856222629547,0.0928039699792862,0.7482758164405823,-0.6533965468406677,
0,2023-09-09 15:54:18.2070,02:22,10,1,2023-09-09 15:54:27.6140,1694292867.613663,-0.0015518239233642817,-0.005140699911862612,-0.0035081820096820593,0.19207763671875,-0.0126495361328125,-0.9821319580078125,113.83885192871094,-27.8563232421875,-38.80757141113281,2023-09-09 15:54:27.3020,1694292867.301765,0.011502980254590511,-0.0003388989716768265,-0.0019496467430144548,0.0935516506433487,0.7540283799171448,-0.6509398221969604,
0,2023-09-09 15:54:18.2070,02:22,10,1,2023-09-09 15:54:27.7140,1694292867.7138329,-0.0019534286111593246,-0.0020751350093632936,-0.0023845944087952375,0.192901611328125,-0.01263427734375,-0.98272705078125,113.9617919921875,-27.830780029296875,-38.49653625488281,2023-09-09 15:54:27.4010,1694292867.401486,-0.0068690357729792595,-0.002898062579333782,0.0010720755672082305,0.0924529954791069,0.7481995224952698,-0.6522826552391052,
0,2023-09-09 15:54:18.2070,02:22,10,1,2023-09-09 15:54:27.8140,1694292867.813871,-0.0003510046226438135,-0.005548163317143917,-0.0008988168556243181,0.1927032470703125,-0.0128173828125,-0.9830780029296875,113.9617919921875,-27.830780029296875,-38.49653625488281,2023-09-09 15:54:27.5020,1694292867.501524,-0.012054677121341228,0.004496070556342602,0.0015664581442251801,0.0900115966796875,0.747238278388977,-0.6522521376609802,
0,2023-09-09 15:54:18.2070,02:22,10,1,2023-09-09 15:54:27.9140,1694292867.91369,-0.0018610169645398855,-0.0041247038170695305,-0.00042876892257481813,0.1931915283203125,-0.011962890625,-0.983306884765625,113.82270812988281,-27.62445068359375,-38.60014343261719,2023-09-09 15:54:27.6010,1694292867.6013808,0.02467670477926731,-0.005227662622928619,-5.0879549235105515e-05,0.0918884426355362,0.7529450058937073,-0.6533202528953552,
0,2023-09-09 15:54:18.2070,02:22,10,1,2023-09-09 15:54:28.0140,1694292868.01376,-0.0014120079576969147,-0.003933222498744726,-0.0010301107540726662,0.1920013427734375,-0.01202392578125,-0.982086181640625,113.6939697265625,-27.697647094726562,-38.67304992675781,2023-09-09 15:54:27.7020,1694292867.701694,0.022044703364372253,-0.008226915262639523,-0.0062224892899394035,0.09439089894294739,0.7593079805374146,-0.6499022841453552,
0,2023-09-09 15:54:18.2070,02:22,10,1,2023-09-09 15:54:28.1140,1694292868.113762,-0.00019760655413847417,-0.004328169394284487,-0.0022455775178968906,0.1925506591796875,-0.011138916015625,-0.9827880859375,113.84388732910156,-27.868865966796875,-38.62263488769531,2023-09-09 15:54:27.8010,1694292867.800813,-0.013492451049387455,0.003931347280740738,0.0033271736465394497,0.0887756422162056,0.7410278916358948,-0.6568145155906677,
0,2023-09-09 15:54:18.2070,02:22,10,1,2023-09-09 15:54:28.2130,1694292868.2134871,7.616640505148098e-05,-0.004507932811975479,-0.00270736962556839,0.193115234375,-0.0122833251953125,-0.98284912109375,113.86598205566406,-27.940277099609375,-38.85713195800781,2023-09-09 15:54:27.9010,1694292867.900749,0.01321326196193695,-0.011107389815151691,-0.007320044096559286,0.0953826978802681,0.7498932480812073,-0.652450442314148,
0,2023-09-09 15:54:18.2070,02:22,10,1,2023-09-09 15:54:28.3140,1694292868.313776,-0.003275688039138913,-0.005129780620336533,-0.0010101370280608535,0.1927947998046875,-0.0125274658203125,-0.98272705078125,113.92723083496094,-27.778839111328125,-38.45570373535156,2023-09-09 15:54:28.0000,1694292868.000495,0.0027186765801161528,-0.003524305298924446,-0.0015339938690885901,0.0899658128619194,0.7491303086280823,-0.6537169218063354,
0,2023-09-09 15:54:18.2070,02:22,10,1,2023-09-09 15:54:28.4140,1694292868.413806,-0.0013028184184804559,-0.005314604379236698,-0.0014056164072826505,0.19268798828125,-0.01226806640625,-0.9830322265625,113.71247863769531,-27.877273559570312,-38.314208984375,2023-09-09 15:54:28.1000,1694292868.100405,-0.006073949858546257,0.0041949995793402195,0.001002633711323142,0.0882263109087944,0.7493134140968323,-0.653243899345398,
0,2023-09-09 15:54:18.2070,02:22,10,1,2023-09-09 15:54:28.5140,1694292868.513516,-0.0006226470577530563,-0.005123389419168234,-0.0027057717088609934,0.191802978515625,-0.0116729736328125,-0.9834747314453125,113.8775634765625,-28.095413208007812,-38.40043640136719,2023-09-09 15:54:28.2000,1694292868.200136,-0.002431544242426753,-0.010941075161099434,-0.0030176742002367973,0.0880737453699112,0.743179440498352,-0.656478762626648,
0,2023-09-09 15:54:18.2070,02:22,10,1,2023-09-09 15:54:28.6130,1694292868.613471,-0.0008908273885026574,-0.006811034400016069,-0.0036719664931297302,0.193206787109375,-0.0123291015625,-0.982940673828125,113.64175415039062,-27.358108520507812,-38.71363830566406,2023-09-09 15:54:28.3000,1694292868.30025,0.024223502725362778,-0.01200021430850029,-0.013368049636483192,0.0940857082605362,0.7535095810890198,-0.6518706679344177,
0,2023-09-09 15:54:18.2070,02:22,10,1,2023-09-09 15:54:28.7140,1694292868.713721,-0.0009803095599636436,-0.0057708038948476315,-0.0020415792241692543,0.1928558349609375,-0.011474609375,-0.9828948974609375,113.79934692382812,-27.995132446289062,-37.99006652832031,2023-09-09 15:54:28.4000,1694292868.3998852,-0.02332950197160244,0.00436624139547348,0.0032018055208027363,0.0841217115521431,0.743270993232727,-0.6585692763328552,
0,2023-09-09 15:54:18.2070,02:22,10,1,2023-09-09 15:54:28.8140,1694292868.81356,-0.0013510215794667602,-0.004758269991725683,0.0003981425834354013,0.1936187744140625,-0.01165771484375,-0.9832305908203125,113.72071838378906,-27.712982177734375,-38.201751708984375,2023-09-09 15:54:28.5000,1694292868.499759,-0.001195304561406374,-0.003830169327557087,0.006672370247542858,0.08816526085138321,0.7431182861328125,-0.6558531522750854,
0,2023-09-09 15:54:18.2070,02:22,10,1,2023-09-09 15:54:28.9140,1694292868.9138331,-0.0021369203459471464,-0.005831790156662464,-0.003350256709381938,0.1933746337890625,-0.01348876953125,-0.9844818115234375,113.66130065917969,-27.841522216796875,-38.324005126953125,2023-09-09 15:54:28.5990,1694292868.599391,0.04648313298821449,-0.00796579197049141,0.02084844373166561,0.0875244289636612,0.7527313828468323,-0.6584624648094177,
0,2023-09-09 15:54:18.2070,02:22,10,1,2023-09-09 15:54:29.0140,1694292869.013618,-0.000681236619129777,-0.0041497377678751945,-0.0008735168376006186,0.1926116943359375,-0.0124969482421875,-0.9824371337890625,113.64474487304688,-27.976760864257812,-38.20954895019531,2023-09-09 15:54:28.6990,1694292868.699335,0.020226165652275085,-0.012828857637941837,0.016726702451705933,0.0884246900677681,0.7191315293312073,-0.6659545302391052,
0,2023-09-09 15:54:18.2070,02:22,10,1,2023-09-09 15:54:29.1130,1694292869.113443,-0.0002103897277265787,-0.0006892260862514377,-0.0023089605383574963,0.19256591796875,-0.012451171875,-0.9835968017578125,113.84426879882812,-27.700820922851562,-38.21391296386719,2023-09-09 15:54:28.7990,1694292868.799224,0.1739530712366104,-0.013486258685588837,0.0272815078496933,0.0817566066980362,0.7466431856155396,-0.669326663017273,
0,2023-09-09 15:54:18.2070,02:22,10,1,2023-09-09 15:54:29.2130,1694292869.213489,-0.0002103897277265787,-0.0006892260862514377,-0.0023089605383574963,0.1925048828125,-0.011871337890625,-0.982421875,113.73410034179688,-27.802291870117188,-38.19256591796875,2023-09-09 15:54:28.8990,1694292868.8989902,0.34671035408973694,0.02043069526553154,0.10182691365480423,0.0832519605755806,0.7427825927734375,-0.6777647137641907,
0,2023-09-09 15:54:18.2070,02:22,10,1,2023-09-09 15:54:29.3140,1694292869.313601,0.0017555557424202561,-0.004171309061348438,-0.0031784826423972845,0.1929473876953125,-0.012298583984375,-0.98333740234375,113.769287109375,-28.045272827148438,-38.16719055175781,2023-09-09 15:54:28.9990,1694292868.9989471,0.10466647893190384,0.021089959889650345,0.030761029571294785,0.0907592847943306,0.6922913193702698,-0.7003172636032104,
0,2023-09-09 15:54:18.2070,02:22,10,1,2023-09-09 15:54:29.4140,1694292869.413638,-0.0005491438205353916,-0.00449994346126914,-0.003212571144104004,0.1931915283203125,-0.0116119384765625,-0.9828033447265625,113.78204345703125,-27.84051513671875,-38.06758117675781,2023-09-09 15:54:29.0990,1694292869.0988169,-0.18347501754760742,-0.008779254741966724,-0.036924272775650024,0.09657289832830429,0.6897583603858948,-0.705367922782898,
0,2023-09-09 15:54:18.2070,02:22,10,1,2023-09-09 15:54:29.5140,1694292869.513632,-0.0014389059506356716,-0.003157443832606077,-0.0018157431622967124,0.1921844482421875,-0.012664794921875,-0.982513427734375,113.72215270996094,-27.976348876953125,-38.599029541015625,2023-09-09 15:54:29.1980,1694292869.198483,-0.4952491521835327,0.02883176878094673,-0.0037713823840022087,0.09027099609375,0.6947022676467896,-0.6968535780906677,
0,2023-09-09 15:54:18.2070,02:22,10,1,2023-09-09 15:54:29.6140,1694292869.613668,-0.0017206683987751603,-0.003306048223748803,-0.0012221246724948287,0.192108154296875,-0.0130615234375,-0.9825439453125,113.73872375488281,-27.846359252929688,-38.58772277832031,2023-09-09 15:54:29.2980,1694292869.298434,0.4942779541015625,-0.11801506578922272,0.05084216222167015,0.0832977294921875,0.8621063828468323,-0.6468810439109802,
0,2023-09-09 15:54:18.2070,02:22,10,1,2023-09-09 15:54:29.7130,1694292869.7134418,0.0012434299569576979,-0.004806206561625004,-0.0019028285751119256,0.19287109375,-0.01202392578125,-0.981903076171875,113.84007263183594,-28.147308349609375,-38.59832763671875,2023-09-09 15:54:29.3980,1694292869.398226,-0.3240792155265808,-0.0894678458571434,0.10505066812038422,0.0837707445025444,0.6416473984718323,-0.6865842938423157,
0,2023-09-09 15:54:18.2070,02:22,10,1,2023-09-09 15:54:29.8140,1694292869.813647,-0.0009811085183173418,-0.003326820908114314,-0.0015225291717797518,0.19317626953125,-0.0118865966796875,-0.9831390380859375,113.69354248046875,-27.96728515625,-38.43501281738281,2023-09-09 15:54:29.4980,1694292869.4981651,-0.269758403301239,0.1446142941713333,0.11441297829151154,0.0800628587603569,0.6932678818702698,-0.6026304960250854,
0,2023-09-09 15:54:18.2070,02:22,10,1,2023-09-09 15:54:29.9130,1694292869.9134269,-0.0001573928166180849,-0.00276089902035892,0.00010812433902174234,0.1927032470703125,-0.01202392578125,-0.9821319580078125,113.65512084960938,-28.082839965820312,-38.49639892578125,2023-09-09 15:54:29.5980,1694292869.597907,-0.11018277704715729,-0.03647653013467789,-0.05176457390189171,0.0876769870519638,0.7456970810890198,-0.6751097440719604,
0,2023-09-09 15:54:18.2070,02:22,10,1,2023-09-09 15:54:30.0140,1694292870.013576,-0.0007057376787997782,-0.0049308426678180695,-0.002788329729810357,0.1925811767578125,-0.0124359130859375,-0.9817047119140625,113.77951049804688,-27.906005859375,-38.31639099121094,2023-09-09 15:54:29.6980,1694292869.697654,0.6232081651687622,-0.03879387676715851,-0.07501892745494843,0.0874786525964737,0.7456971406936646,-0.6962127089500427,
0,2023-09-09 15:54:18.2070,02:22,10,1,2023-09-09 15:54:30.1130,1694292870.113488,0.0021576930303126574,-0.0017164073651656508,-0.0024796691723167896,0.1922760009765625,-0.011993408203125,-0.9821624755859375,113.73542785644531,-28.05517578125,-38.65138244628906,2023-09-09 15:54:29.7980,1694292869.797873,0.35697680711746216,-0.15453098714351654,-0.15030811727046967,0.093475341796875,0.7589111924171448,-0.6706542372703552,
0,2023-09-09 15:54:18.2070,02:22,10,1,2023-09-09 15:54:30.2140,1694292870.2135859,2.3968450477696024e-05,-0.0022330605424940586,-0.0026141589041799307,0.1929779052734375,-0.0126953125,-0.98175048828125,113.741943359375,-27.842437744140625,-38.212066650390625,2023-09-09 15:54:29.8980,1694292869.897873,0.23579879105091095,0.026198169216513634,-0.1300930380821228,0.06900026649236679,0.7475739121437073,-0.6992033123970032,
0,2023-09-09 15:54:18.2070,02:22,10,1,2023-09-09 15:54:30.3130,1694292870.313436,0.00047164582065306604,-0.004224572330713272,-0.001767273643054068,0.1936492919921875,-0.0126495361328125,-0.9836883544921875,113.54598999023438,-27.634231567382812,-38.46044921875,2023-09-09 15:54:29.9980,1694292869.99752,0.5361801981925964,-0.33876702189445496,-0.32932931184768677,0.0635833702981472,0.6849365830421448,-0.7017058730125427,
0,2023-09-09 15:54:18.2070,02:22,10,1,2023-09-09 15:54:30.4130,1694292870.413422,-0.0036818201187998056,-0.006460295990109444,-0.0014769891276955605,0.1937408447265625,-0.0126495361328125,-0.984039306640625,113.68315124511719,-27.80767822265625,-38.3658447265625,2023-09-09 15:54:30.0970,1694292870.097196,0.27291032671928406,-0.6373870372772217,-0.26438939571380615,-0.02601620741188526,0.628006100654602,-0.747970461845398,
0,2023-09-09 15:54:18.2070,02:22,10,1,2023-09-09 15:54:30.5130,1694292870.512991,-0.0022895196452736855,-0.005971073638647795,-0.0015361113473773003,0.19317626953125,-0.0111846923828125,-0.9835968017578125,113.55766296386719,-27.905517578125,-38.082794189453125,2023-09-09 15:54:30.1980,1694292870.197726,-0.29542768001556396,-0.967755913734436,-0.16308367252349854,-0.0464019700884819,0.4475250840187073,-0.6993407607078552,
0,2023-09-09 15:54:18.2070,02:22,10,1,2023-09-09 15:54:30.6140,1694292870.613665,-0.002145176287740469,-0.004261856433004141,-0.0017353157745674253,0.193084716796875,-0.011627197265625,-0.9836578369140625,113.70172119140625,-27.91058349609375,-38.23622131347656,2023-09-09 15:54:30.2970,1694292870.296884,0.27252253890037537,-1.383075475692749,-0.09062129259109497,-0.2272949069738388,0.536575436592102,-0.8330382704734802,
0,2023-09-09 15:54:18.2070,02:22,10,1,2023-09-09 15:54:30.7130,1694292870.713482,-0.003165699541568756,-0.004086354281753302,-0.001353418454527855,0.1933441162109375,-0.012054443359375,-0.982513427734375,113.70390319824219,-28.049468994140625,-38.12974548339844,2023-09-09 15:54:30.3970,1694292870.396703,-0.006627820432186127,-1.3531198501586914,-0.1437484622001648,-0.196502685546875,0.6330414414405823,-0.7838591933250427,
0,2023-09-09 15:54:18.2070,02:22,10,1,2023-09-09 15:54:30.8110,1694292870.811106,0.00044075315236113966,-0.0037609159480780363,-0.002519616624340415,0.1925201416015625,-0.0123748779296875,-0.982452392578125,113.57633972167969,-27.792526245117188,-37.99513244628906,2023-09-09 15:54:30.4970,1694292870.496567,-0.26538655161857605,-1.175859808921814,-0.23864787817001343,-0.33807373046875,0.6310120224952698,-0.7220153212547302,
0,2023-09-09 15:54:18.2070,02:22,10,1,2023-09-09 15:54:30.9130,1694292870.913384,-1.0120012120751198e-05,-0.006555104628205299,-0.00020772656716872007,0.193450927734375,-0.0114288330078125,-0.98358154296875,113.83137512207031,-28.143112182617188,-37.97303771972656,2023-09-09 15:54:30.5960,1694292870.5964599,-0.05070999264717102,-1.2888489961624146,-0.3414638340473175,-0.4344329833984375,0.587539792060852,-0.5778197050094604,
0,2023-09-09 15:54:18.2070,02:22,10,1,2023-09-09 15:54:31.0130,1694292871.0133672,0.0003486077766865492,-0.002609365154057741,-0.002127865795046091,0.1920166015625,-0.011566162109375,-0.9820404052734375,113.74501037597656,-27.834014892578125,-38.28361511230469,2023-09-09 15:54:30.6960,1694292870.69631,-0.0768144354224205,-1.4275145530700684,-0.4882144629955292,-0.5914154052734375,0.48449718952178955,-0.5544280409812927,
0,2023-09-09 15:54:18.2070,02:22,10,1,2023-09-09 15:54:31.1130,1694292871.113436,-0.0017009610310196877,-0.00598545465618372,-0.003108974313363433,0.192901611328125,-0.0123138427734375,-0.98199462890625,113.752685546875,-28.011672973632812,-38.13114929199219,2023-09-09 15:54:30.7960,1694292870.796015,0.2915771007537842,-1.5009223222732544,-0.34988170862197876,-0.6582489609718323,0.4598541855812073,-0.5775909125804901,
0,2023-09-09 15:54:18.2070,02:22,10,1,2023-09-09 15:54:31.2140,1694292871.213678,0.0013195963110774755,-0.0023441144730895758,-0.0012500877492129803,0.193115234375,-0.0109405517578125,-0.9820556640625,113.79905700683594,-28.033050537109375,-38.17987060546875,2023-09-09 15:54:30.8960,1694292870.895766,-0.19550247490406036,-1.1126229763031006,-0.1892613172531128,-0.7000885009765625,0.534164547920227,-0.40914905071258545,
0,2023-09-09 15:54:18.2070,02:22,10,1,2023-09-09 15:54:31.3140,1694292871.313828,-0.002085787709802389,-0.004111388232558966,-0.0024144218768924475,0.1920013427734375,-0.012481689453125,-0.98284912109375,113.61741638183594,-27.94171142578125,-38.223541259765625,2023-09-09 15:54:30.9960,1694292870.9956908,-0.007892422378063202,-1.050776720046997,-0.20635545253753662,-0.8587645292282104,0.5438690185546875,-0.33113089203834534,
0,2023-09-09 15:54:18.2070,02:22,10,1,2023-09-09 15:54:31.4110,1694292871.410763,0.0004569984448608011,-0.003817375050857663,-0.00044528054422698915,0.192626953125,-0.0115509033203125,-0.984130859375,113.69644165039062,-27.792236328125,-38.22459411621094,2023-09-09 15:54:31.0960,1694292871.095564,-0.46721014380455017,-0.9065448045730591,0.019331039860844612,-0.874252200126648,0.6095429062843323,-0.29710376262664795,
0,2023-09-09 15:54:18.2070,02:22,10,1,2023-09-09 15:54:31.5140,1694292871.514032,-0.0006607302348129451,-0.007089600898325443,-0.0018093516118824482,0.1921234130859375,-0.0123291015625,-0.982879638671875,114.10447692871094,-27.998992919921875,-38.400360107421875,2023-09-09 15:54:31.1960,1694292871.195513,1.2239621877670288,0.41229286789894104,0.5825455188751221,-0.4439697265625,0.5977936387062073,-0.728332445025444,
0,2023-09-09 15:54:18.2070,02:22,10,1,2023-09-09 15:54:31.6140,1694292871.613527,0.004430434666574001,-0.005160673521459103,-0.0002657834847923368,0.19232177734375,-0.0106353759765625,-0.9954986572265625,114.02799987792969,-28.123138427734375,-38.304595947265625,2023-09-09 15:54:31.2950,1694292871.295088,2.223606586456299,1.290299892425537,0.9783549904823303,-0.4909057021141052,0.4376221299171448,-0.5575713217258453,
0,2023-09-09 15:54:18.2070,02:22,10,1,2023-09-09 15:54:31.7130,1694292871.713227,-0.02725585550069809,-0.02014841139316559,-0.011997540481388569,0.1621856689453125,0.0297698974609375,-0.8885040283203125,113.98500061035156,-28.116073608398438,-37.97605895996094,2023-09-09 15:54:31.3950,1694292871.395121,2.608973503112793,1.0372451543807983,0.8504101634025574,-0.3848724365234375,0.804733395576477,-0.7640381455421448,
0,2023-09-09 15:54:18.2070,02:22,10,1,2023-09-09 15:54:31.8140,1694292871.813906,-0.009153550490736961,0.002945189829915762,-0.003073021536692977,0.20233154296875,0.00927734375,-1.0009918212890625,113.73733520507812,-27.750015258789062,-38.22322082519531,2023-09-09 15:54:31.4950,1694292871.494832,3.4245524406433105,0.5715954303741455,0.17942161858081818,-0.546218752861023,0.7178345322608948,-0.5963744521141052,
0,2023-09-09 15:54:18.2070,02:22,10,1,2023-09-09 15:54:31.9120,1694292871.912094,-0.016512930393218994,-0.0046666571870446205,0.003466370515525341,0.192626953125,-0.010467529296875,-0.9970703125,113.74459838867188,-27.854049682617188,-38.20649719238281,2023-09-09 15:54:31.5950,1694292871.594716,1.4377362728118896,0.31876811385154724,-0.36179080605506897,-0.7686919569969177,0.6830902695655823,-0.8199157118797302,
0,2023-09-09 15:54:18.2070,02:22,10,1,2023-09-09 15:54:32.0140,1694292872.01351,0.0019451729021966457,-0.00851332675665617,-0.011259312741458416,0.1652679443359375,-0.0023345947265625,-0.9316558837890625,113.66914367675781,-27.767501831054688,-38.32957458496094,2023-09-09 15:54:31.6950,1694292871.6945682,1.1943614482879639,0.2820124924182892,-0.6969988942146301,-0.6371612548828125,0.4990997910499573,-0.9665985107421875,
0,2023-09-09 15:54:18.2070,02:22,10,1,2023-09-09 15:54:32.1130,1694292872.112905,0.006906375754624605,-0.00774766830727458,-0.0059510995633900166,0.1882476806640625,0.002838134765625,-0.952178955078125,113.710693359375,-27.895553588867188,-38.21723937988281,2023-09-09 15:54:31.7940,1694292871.7943602,1.763550043106079,0.5718442797660828,-0.8481168150901794,-0.716064453125,0.6595765054225922,-1.0654602646827698,
0,2023-09-09 15:54:18.2070,02:22,10,1,2023-09-09 15:54:32.2130,1694292872.21348,-0.007724765222519636,-0.00011478224041638896,0.003285009181126952,0.187469482421875,0.00067138671875,-0.964599609375,113.68013000488281,-27.918197631835938,-37.86112976074219,2023-09-09 15:54:31.8940,1694292871.894171,1.1147828102111816,1.2913930416107178,-0.5053319931030273,-1.183929443359375,0.5926361531019211,-1.4860076308250427,
0,2023-09-09 15:54:18.2070,02:22,10,1,2023-09-09 15:54:32.3130,1694292872.313174,-0.0023989754263311625,-0.003297259798273444,-0.00520754512399435,0.1911773681640625,-0.0103912353515625,-0.984283447265625,113.64491271972656,-27.670623779296875,-37.827728271484375,2023-09-09 15:54:31.9940,1694292871.994106,1.7487423419952393,0.06271862983703613,-0.19745522737503052,-0.822906494140625,0.19700627774000168,-1.0596771836280823,
0,2023-09-09 15:54:18.2070,02:22,10,1,2023-09-09 15:54:32.4130,1694292872.41298,0.012683038599789143,-0.004357197787612677,0.006165483966469765,0.196258544921875,-0.0181732177734375,-1.006378173828125,113.71513366699219,-27.836822509765625,-37.9971923828125,2023-09-09 15:54:32.0940,1694292872.093924,1.0660938024520874,0.15912586450576782,0.1147482693195343,-0.8566131591796875,0.18516546487808228,-0.9050445556640625,
0,2023-09-09 15:54:18.2070,02:22,10,1,2023-09-09 15:54:32.5140,1694292872.514062,0.001347825862467289,-0.0027289411518722773,-0.004886900540441275,0.188201904296875,-0.0176544189453125,-0.98583984375,113.87376403808594,-27.904022216796875,-38.005401611328125,2023-09-09 15:54:32.1940,1694292872.193744,0.4252685308456421,0.5471440553665161,-0.07090451568365097,-0.6150970160961151,-0.08154293149709702,-1.062713623046875,
0,2023-09-09 15:54:18.2070,02:22,10,1,2023-09-09 15:54:32.6140,1694292872.614119,-0.003403253620490432,-0.0043745082803070545,-0.003314303932711482,0.2107696533203125,-0.0037841796875,-1.0038299560546875,113.83181762695312,-27.878524780273438,-38.280487060546875,2023-09-09 15:54:32.2930,1694292872.293467,0.2547098994255066,0.9879487156867981,-0.008597097359597683,-0.50372314453125,-0.14430230855941772,-1.0174713134765625,
0,2023-09-09 15:54:18.2070,02:22,10,1,2023-09-09 15:54:32.7130,1694292872.71279,-0.00033635724685154855,0.00039521310827694833,0.003989681601524353,0.1969146728515625,-0.018310546875,-0.9994659423828125,113.85440063476562,-27.942398071289062,-38.167449951171875,2023-09-09 15:54:32.3930,1694292872.393446,0.147438645362854,1.0597938299179077,-0.25652971863746643,-0.4170684814453125,-0.2633971869945526,-0.9109954833984375,
0,2023-09-09 15:54:18.2070,02:22,10,1,2023-09-09 15:54:32.8130,1694292872.813253,0.000966727442573756,-0.014846057631075382,-0.002755839144811034,0.1854095458984375,-0.0115966796875,-0.9857330322265625,113.84585571289062,-27.808914184570312,-38.2528076171875,2023-09-09 15:54:32.4930,1694292872.4932761,0.14443345367908478,0.33153969049453735,-0.1502441018819809,0.1306305080652237,-0.06344600021839142,-1.0169830322265625,
0,2023-09-09 15:54:18.2070,02:22,10,1,2023-09-09 15:54:32.9140,1694292872.913573,0.005889314226806164,-0.0007086671539582312,-0.0023427826818078756,0.198883056640625,-0.016815185546875,-0.9868011474609375,113.73648071289062,-28.175094604492188,-38.397064208984375,2023-09-09 15:54:32.5930,1694292872.5931091,-0.14644744992256165,-0.0009827176108956337,0.017483806237578392,-0.2455901801586151,-0.24581903219223022,-0.8565978407859802,
0,2023-09-09 15:54:18.2070,02:22,10,1,2023-09-09 15:54:33.0130,1694292873.012857,-0.005333246197551489,-0.0051289820112288,-0.002520682057365775,0.1968536376953125,-0.013702392578125,-0.983001708984375,113.76667785644531,-27.848297119140625,-38.57255554199219,2023-09-09 15:54:32.6940,1694292872.693562,-0.06403013318777084,0.006179720629006624,0.062008827924728394,-0.1307220160961151,-0.19946284592151642,-0.9273529052734375,
0,2023-09-09 15:54:18.2070,02:22,10,1,2023-09-09 15:54:33.1130,1694292873.112938,0.0004543352697510272,-0.007520766928792,0.00038163099088706076,0.1910858154296875,-0.0108184814453125,-0.9846343994140625,113.72901916503906,-27.873550415039062,-38.40495300292969,2023-09-09 15:54:32.7930,1694292872.792774,-0.18169571459293365,0.09257359802722931,0.046166714280843735,-0.1785888373851776,-0.22509761154651642,-0.976043701171875,
0,2023-09-09 15:54:18.2070,02:22,10,1,2023-09-09 15:54:33.2130,1694292873.213486,-0.00424214918166399,-0.007880560122430325,-0.010145844891667366,0.1840667724609375,-0.009490966796875,-0.9819183349609375,113.81521606445312,-27.654373168945312,-38.9276123046875,2023-09-09 15:54:32.8930,1694292872.8926659,-0.5240306258201599,-0.05619364231824875,0.20204895734786987,-0.11901849508285522,-0.15206904709339142,-0.940399169921875,
0,2023-09-09 15:54:18.2070,02:22,10,1,2023-09-09 15:54:33.3130,1694292873.313442,0.00011611382069531828,-0.013098757714033127,-0.012595420703291893,0.18743896484375,-0.0018463134765625,-0.95599365234375,113.85450744628906,-27.959579467773438,-38.64501953125,2023-09-09 15:54:32.9920,1694292872.9924212,-0.8446033000946045,0.16038578748703003,0.10222196578979492,-0.11262507736682892,-0.07083124667406082,-0.95465087890625,
0,2023-09-09 15:54:18.2070,02:22,10,1,2023-09-09 15:54:33.4140,1694292873.413876,0.010868626646697521,-0.005534847732633352,0.016144081950187683,0.1906585693359375,-0.0170745849609375,-0.97674560546875,113.80992126464844,-27.702987670898438,-38.20918273925781,2023-09-09 15:54:33.0920,1694292873.0922751,-0.22175730764865875,0.22742289304733276,-0.0002423608093522489,-0.2141723334789276,-0.0005034888163208961,-0.992523193359375,
0,2023-09-09 15:54:18.2070,02:22,10,1,2023-09-09 15:54:33.5140,1694292873.51368,0.0022146848496049643,-0.0027595674619078636,-0.005257878918200731,0.18475341796875,-0.0111541748046875,-0.981109619140625,113.85350036621094,-27.951385498046875,-38.555572509765625,2023-09-09 15:54:33.1920,1694292873.192034,0.30243560671806335,0.11485186964273453,-0.04455602914094925,-0.07150265574455261,0.15228276047855616,-1.0933837890625,
0,2023-09-09 15:54:18.2070,02:22,10,1,2023-09-09 15:54:33.6130,1694292873.612747,0.0023073628544807434,-0.008530370891094208,-0.005799299571663141,0.1959991455078125,-0.000396728515625,-0.966339111328125,113.75001525878906,-27.835205078125,-38.50482177734375,2023-09-09 15:54:33.2920,1694292873.291961,0.19971038401126862,0.10437220335006714,0.009476413019001484,-0.18032832443714142,0.07856756122782826,-1.14251708984375,
0,2023-09-09 15:54:18.2070,02:22,10,1,2023-09-09 15:54:33.7110,1694292873.711083,0.0006785734440200031,-0.007274424657225609,0.0033489251509308815,0.193145751953125,-0.011993408203125,-0.9903411865234375,113.82456970214844,-27.595321655273438,-38.495758056640625,2023-09-09 15:54:33.3920,1694292873.391852,0.21421149373054504,-0.06715734302997589,-0.03702381253242493,-0.11154171824455261,-0.07119745574891567,-0.9958343505859375,
0,2023-09-09 15:54:18.2070,02:22,10,1,2023-09-09 15:54:33.8130,1694292873.812957,0.00038828887045383453,0.001748897833749652,1.997370782191865e-05,0.19293212890625,-0.013946533203125,-0.9839019775390625,113.70550537109375,-27.461761474609375,-38.49885559082031,2023-09-09 15:54:33.4920,1694292873.491524,0.15318334102630615,-0.00800068024545908,0.005165154580026865,-0.14651485532522202,0.05696110986173153,-1.0875091552734375,
0,2023-09-09 15:54:18.2070,02:22,10,1,2023-09-09 15:54:33.9130,1694292873.9128299,0.0024764735717326403,-0.0029385320376604795,-0.005288771353662014,0.195281982421875,-0.012176513671875,-0.9852752685546875,113.68934631347656,-27.75531005859375,-38.27922058105469,2023-09-09 15:54:33.5910,1694292873.591282,-0.23399506509304047,0.17862606048583984,0.05666579678654671,-0.12294002622365952,0.016555840149521828,-1.0135345458984375,
0,2023-09-09 15:54:18.2070,02:22,10,1,2023-09-09 15:54:34.0120,1694292874.011917,-0.001038632821291685,-0.005087436642497778,-0.004249073565006256,0.193267822265625,-0.00823974609375,-0.9817657470703125,113.80546569824219,-27.586959838867188,-38.061676025390625,2023-09-09 15:54:33.6910,1694292873.691218,-0.2414916604757309,-0.005811561830341816,0.07495655119419098,-0.09230037778615952,0.06495672464370728,-1.0005950927734375,
0,2023-09-09 15:54:18.2070,02:22,10,1,2023-09-09 15:54:34.1130,1694292874.1133351,-0.0011731224367395043,-0.005399825517088175,2.3435817638528533e-05,0.1929931640625,-0.0098724365234375,-0.978424072265625,113.85110473632812,-27.553802490234375,-38.499755859375,2023-09-09 15:54:33.7910,1694292873.791051,-0.10330402851104736,-0.06517728418111801,0.01895803213119507,-0.09204097837209702,0.07482915371656418,-0.9762725830078125,
0,2023-09-09 15:54:18.2070,02:22,10,1,2023-09-09 15:54:34.2110,1694292874.2111502,-0.002668487373739481,-0.004788629710674286,-0.003308977698907256,0.1912994384765625,-0.011688232421875,-0.9822235107421875,113.87882995605469,-27.607177734375,-38.38676452636719,2023-09-09 15:54:33.8910,1694292873.8909888,-0.24287430942058563,0.06161421909928322,0.002057145582512021,-0.09654230624437332,0.014236506074666977,-0.9858703017234802,
0,2023-09-09 15:54:18.2070,02:22,10,1,2023-09-09 15:54:34.3120,1694292874.311617,0.00020186760229989886,-0.005109008401632309,-0.003703658003360033,0.191802978515625,-0.010528564453125,-0.9825897216796875,114.00778198242188,-28.149765014648438,-37.333160400390625,2023-09-09 15:54:33.9910,1694292873.990803,-0.08072727918624878,-0.021220345050096512,-0.01809362880885601,-0.09677118808031082,0.05847173184156418,-0.9900817275047302,
0,2023-09-09 15:54:18.2070,02:22,10,1,2023-09-09 15:54:34.4140,1694292874.414022,-0.001284975209273398,-0.005319397896528244,-0.0013307816116139293,0.19427490234375,-0.012847900390625,-0.982086181640625,113.88986206054688,-27.752655029296875,-38.24143981933594,2023-09-09 15:54:34.0910,1694292874.090887,-0.015334492549300194,-0.06406275182962418,-0.033054035156965256,-0.09748836606740952,0.035080019384622574,-0.9816436767578125,
0,2023-09-09 15:54:18.2070,02:22,10,1,2023-09-09 15:54:34.5120,1694292874.512373,-0.004421646241098642,-0.0031902005430310965,-0.00803076196461916,0.1894073486328125,-0.01068115234375,-0.98236083984375,113.85881042480469,-27.89495849609375,-38.30143737792969,2023-09-09 15:54:34.1900,1694292874.1903849,-0.0074011352844536304,0.01650945656001568,-0.027198178693652153,-0.10212704539299011,0.032501280307769775,-0.985260009765625,
0,2023-09-09 15:54:18.2070,02:22,10,1,2023-09-09 15:54:34.6140,1694292874.613812,-0.00021305288828443736,-0.005693305749446154,-0.0025806031189858913,0.19354248046875,-0.00823974609375,-0.98016357421875,113.86201477050781,-27.874801635742188,-38.54981994628906,2023-09-09 15:54:34.2900,1694292874.290392,0.070078544318676,0.034747716039419174,0.007862837053835392,-0.10316464304924011,0.07897955179214478,-0.990570068359375,
0,2023-09-09 15:54:18.2070,02:22,10,1,2023-09-09 15:54:34.7130,1694292874.7126951,-0.0013827132061123848,-0.005162005312740803,-0.004262655507773161,0.189971923828125,-0.010284423828125,-0.977691650390625,113.96195983886719,-27.901718139648438,-38.28167724609375,2023-09-09 15:54:34.3900,1694292874.3901482,-0.028096027672290802,0.08049775660037994,-0.057720933109521866,-0.07226558774709702,0.014679010957479477,-0.9613494873046875,
0,2023-09-09 15:54:18.2070,02:22,10,1,2023-09-09 15:54:34.8120,1694292874.811928,-0.00034674355993047357,-0.004703941289335489,-0.0029909962322562933,0.1921234130859375,-0.008697509765625,-0.980926513671875,113.88346862792969,-27.8028564453125,-38.55284118652344,2023-09-09 15:54:34.4900,1694292874.490113,-0.14768008887767792,0.12592729926109314,0.00563347153365612,-0.11291500180959702,-0.021423283964395523,-0.9689483642578125,
0,2023-09-09 15:54:18.2070,02:22,10,1,2023-09-09 15:54:34.9140,1694292874.913562,0.0004801679460797459,-0.0044983453117311,0.0007137271459214389,0.1963043212890625,-0.01544189453125,-0.9827880859375,113.68057250976562,-27.636932373046875,-38.34867858886719,2023-09-09 15:54:34.5900,1694292874.589891,-0.06265394389629364,0.026577137410640717,0.006960158236324787,-0.07005305588245392,0.0043030306696891785,-0.9765472412109375,
0,2023-09-09 15:54:18.2070,02:22,10,1,2023-09-09 15:54:35.0130,1694292875.012543,-0.0015486282063648105,-0.006176669616252184,0.001014398061670363,0.1892852783203125,-0.0113677978515625,-0.984375,113.81060791015625,-27.799591064453125,-38.34004211425781,2023-09-09 15:54:34.6900,1694292874.689709,-0.1040365993976593,-0.009317878633737564,-0.006326851900666952,-0.06880184262990952,-0.011306706815958023,-0.973907470703125,
0,2023-09-09 15:54:18.2070,02:22,10,1,2023-09-09 15:54:35.1140,1694292875.1136131,0.0004386226355563849,-0.006355101242661476,-0.00612287363037467,0.1930084228515625,-0.0104217529296875,-0.981658935546875,113.7420654296875,-27.54937744140625,-38.40287780761719,2023-09-09 15:54:34.7890,1694292874.789455,0.012644677422940731,0.013154804706573486,-0.02107260748744011,-0.07870479673147202,0.054824888706207275,-0.99627685546875,
0,2023-09-09 15:54:18.2070,02:22,10,1,2023-09-09 15:54:35.2090,1694292875.209446,0.001520398654974997,-0.001945705502294004,0.00033342777169309556,0.1992645263671875,-0.0135498046875,-0.983612060546875,113.69178771972656,-27.583328247070312,-38.29876708984375,2023-09-09 15:54:34.8890,1694292874.8894482,0.020658394321799278,0.018442245200276375,-0.0009929061634466052,-0.07028194516897202,0.059860289096832275,-0.9947662353515625,
0,2023-09-09 15:54:18.2070,02:22,10,1,2023-09-09 15:54:35.3140,1694292875.3137112,-0.004160390235483646,-0.008420648984611034,-0.002785133896395564,0.18939208984375,-0.00970458984375,-0.983795166015625,113.69332885742188,-27.536087036132812,-38.184722900390625,2023-09-09 15:54:34.9890,1694292874.989239,-0.056202229112386703,-0.00021785777062177658,0.008997243829071522,-0.06730647385120392,0.038406431674957275,-1.0081328749656677,
0,2023-09-09 15:54:18.2070,02:22,10,1,2023-09-09 15:54:35.4100,1694292875.409721,-3.2490566809428856e-05,-0.007395331747829914,-0.00484402384608984,0.194732666015625,-0.014984130859375,-0.982574462890625,113.70111083984375,-27.270706176757812,-38.76799011230469,2023-09-09 15:54:35.0890,1694292875.088959,-0.059581317007541656,0.006198362447321415,-0.006890077143907547,-0.07485957443714142,0.05346685275435448,-0.9917755126953125,
0,2023-09-09 15:54:18.2070,02:22,10,1,2023-09-09 15:54:35.5100,1694292875.509633,-0.0008990831556729972,-0.005816343706101179,-0.0005089300684630871,0.1943817138671875,-0.0135040283203125,-0.9834442138671875,113.86312866210938,-27.617462158203125,-38.005157470703125,2023-09-09 15:54:35.1900,1694292875.190058,-0.04989513009786606,-0.02497819811105728,-0.005205760709941387,-0.052810631692409515,0.037674009799957275,-0.9817352294921875,
0,2023-09-09 15:54:18.2070,02:22,10,1,2023-09-09 15:54:35.6090,1694292875.609291,-0.0015518239233642817,-0.002612294629216194,-0.0007640608819201589,0.1911163330078125,-0.014434814453125,-0.98504638671875,113.78465270996094,-27.639801025390625,-38.46856689453125,2023-09-09 15:54:35.2890,1694292875.288794,0.05099852383136749,-0.009815890341997147,-0.00828041322529316,-0.06637568771839142,0.08186346292495728,-0.9988861083984375,
0,2023-09-09 15:54:18.2070,02:22,10,1,2023-09-09 15:54:35.7100,1694292875.709532,-0.0015105449128895998,-0.0054666707292199135,-0.0023284016642719507,0.1899261474609375,-0.0099029541015625,-0.9835052490234375,113.92141723632812,-27.822830200195312,-38.04412841796875,2023-09-09 15:54:35.3890,1694292875.388869,0.03280207887291908,-0.000659676268696785,-0.005463254638016224,-0.06939693540334702,0.056457582861185074,-0.9973602294921875,
0,2023-09-09 15:54:18.2070,02:22,10,1,2023-09-09 15:54:35.8130,1694292875.813459,0.001047421246767044,-0.004405667539685965,-0.003710049670189619,0.1922149658203125,-0.0119781494140625,-0.9796905517578125,113.61030578613281,-27.617324829101562,-38.466400146484375,2023-09-09 15:54:35.4880,1694292875.4884129,-0.01826903037726879,0.010323865339159966,0.0008943429565988481,-0.07516474276781082,0.04779057949781418,-0.9954833388328552,
0,2023-09-09 15:54:18.2070,02:22,10,1,2023-09-09 15:54:35.9130,1694292875.91323,-0.000330231967382133,-0.003412840887904167,0.00013981595111545175,0.1929168701171875,-0.01190185546875,-0.9835357666015625,113.74760437011719,-27.776596069335938,-38.58741760253906,2023-09-09 15:54:35.5880,1694292875.588426,-0.037692662328481674,-0.010449058376252651,-0.004155876114964485,-0.07321161776781082,0.06608586758375168,-0.9833678603172302,
0,2023-09-09 15:54:18.2070,02:22,10,1,2023-09-09 15:54:36.0130,1694292876.013183,-0.0010045443195849657,-0.0023374564480036497,-0.0006325007416307926,0.1899261474609375,-0.0125579833984375,-0.983856201171875,113.84706115722656,-27.726242065429688,-38.990234375,2023-09-09 15:54:35.6880,1694292875.6882339,0.01298642810434103,-0.009892057627439499,-0.008020754903554916,-0.06674189120531082,0.05743413791060448,-0.9917449355125427,
0,2023-09-09 15:54:18.2070,02:22,10,1,2023-09-09 15:54:36.1130,1694292876.113268,-0.001234641415067017,-0.003163036424666643,-0.0023339942563325167,0.1916656494140625,-0.0119171142578125,-0.984130859375,113.7481689453125,-27.432540893554688,-39.1488037109375,2023-09-09 15:54:35.7880,1694292875.788063,0.0351717583835125,0.011591929942369461,0.0029880201909691095,-0.08322139829397202,0.06559759378433228,-0.992401123046875,
0,2023-09-09 15:54:18.2070,02:22,10,1,2023-09-09 15:54:36.2130,1694292876.213111,0.002139317337423563,-0.003849865635856986,-0.002650377806276083,0.194183349609375,-0.012359619140625,-0.9819488525390625,114.0145263671875,-27.724777221679688,-38.786529541015625,2023-09-09 15:54:35.8880,1694292875.887634,-0.026393868029117584,0.022856034338474274,-0.0031373833771795034,-0.08030696958303452,0.040908873081207275,-0.989990234375,
0,2023-09-09 15:54:18.2070,02:22,10,1,2023-09-09 15:54:36.3130,1694292876.3133059,-0.0025300029665231705,-0.0031963258516043425,0.00013209278404247016,0.193115234375,-0.01220703125,-0.98382568359375,113.69387817382812,-27.607803344726562,-38.89662170410156,2023-09-09 15:54:35.9880,1694292875.987595,0.0005173076642677188,0.0042928713373839855,-0.007248471956700087,-0.07476802915334702,0.05737310275435448,-0.983184814453125,
0,2023-09-09 15:54:18.2070,02:22,10,1,2023-09-09 15:54:36.4130,1694292876.4134278,-9.800432599149644e-05,-0.00330285239033401,-0.001303084660321474,0.1922760009765625,-0.0130767822265625,-0.9843597412109375,113.74972534179688,-27.80169677734375,-38.91911315917969,2023-09-09 15:54:36.0880,1694292876.0875092,-0.01631040871143341,-0.0037101944908499718,-0.0033504031598567963,-0.06979367136955261,0.04951482638716698,-0.9838104248046875,
0,2023-09-09 15:54:18.2070,02:22,10,1,2023-09-09 15:54:36.5130,1694292876.513185,6.55137628200464e-05,-0.0016671388875693083,-0.004686098080128431,0.1915740966796875,-0.01312255859375,-0.9818267822265625,113.83328247070312,-27.497161865234375,-38.68165588378906,2023-09-09 15:54:36.1870,1694292876.187307,0.0011105933226644993,0.0018687285482883453,-0.00691301329061389,-0.07244868576526642,0.04614263400435448,-0.9903258681297302,
0,2023-09-09 15:54:18.2070,02:22,10,1,2023-09-09 15:54:36.6130,1694292876.613369,0.0016202671686187387,-0.0031369375064969063,-0.0026437200140208006,0.1927947998046875,-0.01239013671875,-0.9827117919921875,113.781494140625,-27.487838745117188,-38.68721008300781,2023-09-09 15:54:36.2870,1694292876.28724,0.0006268301513046026,0.01562555320560932,0.002183745615184307,-0.07597347348928452,0.06407171115279198,-0.9965057373046875,
0,2023-09-09 15:54:18.2070,02:22,10,1,2023-09-09 15:54:36.7130,1694292876.712944,-0.0012471582740545273,-0.004776379559189081,-0.003820837242528796,0.19171142578125,-0.0116424560546875,-0.9817047119140625,113.81842041015625,-27.472213745117188,-38.52708435058594,2023-09-09 15:54:36.3870,1694292876.386986,-0.0164357777684927,0.005624584853649139,-0.0064273192547261715,-0.07315059006214142,0.05293279141187668,-0.9846648573875427,
0,2023-09-09 15:54:18.2070,02:22,10,1,2023-09-09 15:54:36.8130,1694292876.813126,-0.0009241168736480176,-0.003427221905440092,-0.0011515507940202951,0.1932220458984375,-0.0125885009765625,-0.982757568359375,113.71614074707031,-27.370346069335938,-38.311126708984375,2023-09-09 15:54:36.4870,1694292876.4867148,0.026362553238868713,0.0017789802514016628,-0.003691453952342272,-0.07008358091115952,0.062408506870269775,-0.9957275390625,
0,2023-09-09 15:54:18.2070,02:22,10,1,2023-09-09 15:54:36.9120,1694292876.912281,-0.0017670074012130499,-0.004191016778349876,0.001386175281368196,0.1917724609375,-0.01263427734375,-0.9827117919921875,113.60411071777344,-27.457199096679688,-38.442230224609375,2023-09-09 15:54:36.5870,1694292876.586623,0.003615695983171463,0.0038035153411328793,-0.006558879278600216,-0.06703181564807892,0.050705015659332275,-0.9908905029296875,
0,2023-09-09 15:54:18.2070,02:22,10,1,2023-09-09 15:54:37.0140,1694292877.014229,-0.0014900385867804289,-0.0063031697645783424,-0.003561445279046893,0.190673828125,-0.0116729736328125,-0.9820556640625,113.77909851074219,-27.6973876953125,-38.27888488769531,2023-09-09 15:54:36.6860,1694292876.686388,0.01991976797580719,0.011510037817060947,0.0015785754658281803,-0.07463070005178452,0.061645567417144775,-0.99749755859375,
0,2023-09-09 15:54:18.2070,02:22,10,1,2023-09-09 15:54:37.1130,1694292877.113254,-0.0007265103631652892,-0.004503937903791666,-0.0016671388875693083,0.1926422119140625,-0.0120697021484375,-0.984893798828125,113.73236083984375,-27.459014892578125,-38.42108154296875,2023-09-09 15:54:36.7870,1694292876.786501,0.0003384099109098315,-0.0029260264709591866,0.00552348280325532,-0.07574459165334702,0.07121282815933228,-0.9912567138671875,
0,2023-09-09 15:54:18.2070,02:22,10,1,2023-09-09 15:54:37.2130,1694292877.213365,-0.0026165556628257036,-0.00618119677528739,-0.000928111607208848,0.1927032470703125,-0.012237548828125,-0.983642578125,113.75418090820312,-27.348983764648438,-38.033966064453125,2023-09-09 15:54:36.8860,1694292876.886085,-0.0040576038882136345,0.010606160387396812,-0.0029797577299177647,-0.07212825864553452,0.04106145724654198,-0.9817657470703125,
0,2023-09-09 15:54:18.2070,02:22,10,1,2023-09-09 15:54:37.3100,1694292877.309685,0.000511593243572861,-0.004948153160512447,0.001118793967179954,0.1902923583984375,-0.0117950439453125,-0.9826812744140625,113.75418090820312,-27.348983764648438,-38.033966064453125,2023-09-09 15:54:36.9860,1694292876.985979,0.013099944218993187,0.004870510660111904,-0.00023090915055945516,-0.07043453305959702,0.046737730503082275,-0.993927001953125,
0,2023-09-09 15:54:18.2070,02:22,10,1,2023-09-09 15:54:37.4130,1694292877.413309,0.00018349179299548268,-0.00436172541230917,-0.006649114191532135,0.19183349609375,-0.01129150390625,-0.9819488525390625,113.92930603027344,-27.699005126953125,-38.10125732421875,2023-09-09 15:54:37.0860,1694292877.0857449,9.173457510769367e-05,-0.00484044011682272,-0.004913944751024246,-0.06671138107776642,0.044235289096832275,-0.9981231689453125,
0,2023-09-09 15:54:18.2070,02:22,10,1,2023-09-09 15:54:37.5110,1694292877.5114589,-0.0027656927704811096,-0.0057737333700060844,-5.193164179218002e-05,0.1954193115234375,-0.012359619140625,-0.984771728515625,113.742431640625,-27.644058227539062,-38.50743103027344,2023-09-09 15:54:37.1860,1694292877.18576,-0.03742595016956329,-0.005476669408380985,-0.010231145657598972,-0.06539913266897202,0.03852849826216698,-0.9934844970703125,
0,2023-09-09 15:54:18.2070,02:22,10,1,2023-09-09 15:54:37.6120,1694292877.6123161,-0.0014791196445003152,-0.004368915688246489,0.00022423815971706063,0.1930389404296875,-0.0130157470703125,-0.983795166015625,113.85401916503906,-27.825698852539062,-38.507110595703125,2023-09-09 15:54:37.2860,1694292877.285583,-0.00206675729714334,-0.009306027553975582,-0.000659145531244576,-0.06852717697620392,0.050903379917144775,-0.9953612685203552,
0,2023-09-09 15:54:18.2070,02:22,10,1,2023-09-09 15:54:37.7130,1694292877.712984,-0.00169563468080014,-0.005074653308838606,-0.0018972359830513597,0.190643310546875,-0.0111541748046875,-0.98419189453125,113.91319274902344,-27.76702880859375,-38.59754943847656,2023-09-09 15:54:37.3850,1694292877.385371,0.019408641383051872,0.004615779500454664,0.002284746151417494,-0.07449336349964142,0.060882631689310074,-0.988922119140625,
0,2023-09-09 15:54:18.2070,02:22,10,1,2023-09-09 15:54:37.8130,1694292877.813171,0.00030120351584628224,-0.003543868428096175,-0.004944424610584974,0.193206787109375,-0.0114593505859375,-0.9847259521484375,113.67729187011719,-27.771926879882812,-38.43638610839844,2023-09-09 15:54:37.4850,1694292877.4850879,0.008541278541088104,0.00013594236224889755,-0.005614689085632563,-0.06977840512990952,0.05686956271529198,-0.9932861328125,
0,2023-09-09 15:54:18.2070,02:22,10,1,2023-09-09 15:54:37.9130,1694292877.9131641,0.00043302998528815806,-0.003540938952937722,-0.0001424791116733104,0.195159912109375,-0.0111846923828125,-0.9819183349609375,113.65390014648438,-27.795791625976562,-38.44096374511719,2023-09-09 15:54:37.5850,1694292877.584899,0.005487099289894104,0.001208531204611063,-0.00208516838029027,-0.07106014341115952,0.056060850620269775,-0.9912261962890625,
0,2023-09-09 15:54:18.2070,02:22,10,1,2023-09-09 15:54:38.0130,1694292878.013173,-0.0033577135764062405,-0.002758502261713147,-0.0008412926108576357,0.1905975341796875,-0.0117950439453125,-0.9824066162109375,113.90188598632812,-27.848541259765625,-38.4068603515625,2023-09-09 15:54:37.6860,1694292877.685854,-0.005735262297093868,0.006745908875018358,0.00027602349291555583,-0.06904598325490952,0.052825987339019775,-0.9934234619140625,
0,2023-09-09 15:54:18.2070,02:22,10,1,2023-09-09 15:54:38.1130,1694292878.113086,-0.002481799805536866,-0.003835484618321061,-0.0017339842161163688,0.1903228759765625,-0.012420654296875,-0.98211669921875,113.84246826171875,-27.801467895507812,-38.409332275390625,2023-09-09 15:54:37.7850,1694292877.784748,-0.01748759113252163,-0.005318343639373779,-0.003401236142963171,-0.07118220627307892,0.05416875705122948,-0.995574951171875,
0,2023-09-09 15:54:18.2070,02:22,10,1,2023-09-09 15:54:38.2130,1694292878.2131472,-0.00022370553051587194,-0.0033726270776242018,-0.0009518137667328119,0.1920013427734375,-0.01171875,-0.9831390380859375,113.73025512695312,-27.480636596679688,-38.28480529785156,2023-09-09 15:54:37.8840,1694292877.8844562,-0.002423354657366872,0.009920396842062473,-0.00713395606726408,-0.06983944028615952,0.05212407931685448,-0.994873046875,
0,2023-09-09 15:54:18.2070,02:22,10,1,2023-09-09 15:54:38.3130,1694292878.3133922,-0.0003110571997240186,-0.0018165421206504107,-0.00336197461001575,0.193939208984375,-0.014892578125,-0.9858856201171875,113.68173217773438,-27.799758911132812,-38.339752197265625,2023-09-09 15:54:37.9840,1694292877.9841719,0.002757758367806673,-0.004777722060680389,-0.006011134013533592,-0.06724544614553452,0.07250982150435448,-0.990509033203125,
0,2023-09-09 15:54:18.2070,02:22,10,1,2023-09-09 15:54:38.4130,1694292878.4131541,-0.0005459480453282595,-0.004208593629300594,4.6871635277057067e-05,0.1922607421875,-0.01153564453125,-0.9855499267578125,113.67903137207031,-27.617874145507812,-38.380157470703125,2023-09-09 15:54:38.0840,1694292878.084243,-0.005766686983406544,-0.008162998594343662,-0.008190564811229706,-0.06532283127307892,0.04759221896529198,-0.9897613525390625,
0,2023-09-09 15:54:18.2070,02:22,10,1,2023-09-09 15:54:38.5130,1694292878.513231,0.0017544905422255397,-0.005765477195382118,0.000330231967382133,0.1907958984375,-0.012542724609375,-0.98236083984375,113.69827270507812,-27.512130737304688,-38.33348083496094,2023-09-09 15:54:38.1840,1694292878.18393,0.013281305320560932,0.004161310847848654,-0.005079859402030706,-0.07316584885120392,0.05201726779341698,-0.9907988905906677,
0,2023-09-09 15:54:18.2070,02:22,10,1,2023-09-09 15:54:38.6120,1694292878.611985,-0.0012753878254443407,-0.005151885095983744,-0.0029795446898788214,0.1910247802734375,-0.0098876953125,-0.9808197021484375,113.77755737304688,-27.7039794921875,-38.25407409667969,2023-09-09 15:54:38.2840,1694292878.2838368,0.00037529459223151207,-0.0021297410130500793,0.00024223467335104942,-0.07124324887990952,0.06518560647964478,-0.997650146484375,
0,2023-09-09 15:54:18.2070,02:22,10,1,2023-09-09 15:54:38.7130,1694292878.713073,-0.0019534286111593246,-0.006016613449901342,-0.0006314354832284153,0.19439697265625,-0.011199951171875,-0.9827423095703125,113.98875427246094,-27.87823486328125,-38.19612121582031,2023-09-09 15:54:38.3840,1694292878.3836842,0.00291202194057405,0.0017852387391030788,-0.004370926413685083,-0.07452388852834702,0.05650335177779198,-0.9891510009765625,
0,2023-09-09 15:54:18.2070,02:22,10,1,2023-09-09 15:54:38.8100,1694292878.8101811,-0.00016298545233439654,-0.00202267081476748,0.00029081720276735723,0.1917877197265625,-0.012725830078125,-0.98345947265625,113.76596069335938,-28.001937866210938,-38.06462097167969,2023-09-09 15:54:38.4840,1694292878.483612,0.033675529062747955,0.0009820293635129929,-0.0010514291934669018,-0.06764216721057892,0.07482915371656418,-0.9924620985984802,
0,2023-09-09 15:54:18.2070,02:22,10,1,2023-09-09 15:54:38.9130,1694292878.9131532,-0.003964115399867296,-0.003531884169206023,0.0003909520455636084,0.1913299560546875,-0.013885498046875,-0.983612060546875,113.88299560546875,-27.859954833984375,-38.04020690917969,2023-09-09 15:54:38.5830,1694292878.5833101,0.019692333415150642,0.003318953327834606,-0.0007403719937428832,-0.07009883970022202,0.058639585971832275,-0.9987335205078125,
0,2023-09-09 15:54:18.2070,02:22,10,1,2023-09-09 15:54:39.0130,1694292879.013118,0.0011797803454101086,-0.006982009392231703,-0.0033627734519541264,0.1925506591796875,-0.0110321044921875,-0.98333740234375,113.82049560546875,-27.55047607421875,-38.671478271484375,2023-09-09 15:54:38.6830,1694292878.683068,0.01658269390463829,0.0037202914245426655,-0.00510069914162159,-0.07514949887990952,0.06542974337935448,-0.99560546875,
0,2023-09-09 15:54:18.2070,02:22,10,1,2023-09-09 15:54:39.1130,1694292879.112934,-0.0006886934279464185,-0.007779626175761223,-0.002782204421237111,0.192626953125,-0.01031494140625,-0.9782562255859375,113.90463256835938,-27.794998168945312,-38.50563049316406,2023-09-09 15:54:38.7830,1694292878.782847,-0.016050949692726135,0.0005209026858210564,-0.002046286128461361,-0.07254024595022202,0.049209654331207275,-0.9853973388671875,
0,2023-09-09 15:54:18.2070,02:22,10,1,2023-09-09 15:54:39.2120,1694292879.2124949,-0.0017246630741283298,-0.0030024477746337652,-0.0016447682864964008,0.1911163330078125,-0.010040283203125,-0.9792327880859375,113.78662109375,-27.695724487304688,-38.41218566894531,2023-09-09 15:54:38.8830,1694292878.882705,0.009556342847645283,-0.0008837813511490822,-0.00043903524056077003,-0.07214351743459702,0.05677800998091698,-0.995391845703125,
0,2023-09-09 15:54:18.2070,02:22,10,1,2023-09-09 15:54:39.3120,1694292879.311853,-0.0007643272401764989,-0.004412058740854263,-0.00042743736412376165,0.190155029296875,-0.0109405517578125,-0.9815216064453125,114.013427734375,-28.057586669921875,-38.45188903808594,2023-09-09 15:54:38.9830,1694292878.982695,0.009454676881432533,0.00433215219527483,-0.004646463319659233,-0.06739802658557892,0.05355840176343918,-0.9944457411766052,
0,2023-09-09 15:54:18.2070,02:22,10,1,2023-09-09 15:54:39.4130,1694292879.4127889,0.0004966795677319169,-0.004197141621261835,-0.002242914168164134,0.1919097900390625,-0.0127716064453125,-0.9842529296875,113.89064025878906,-27.88311767578125,-38.30976867675781,2023-09-09 15:54:39.0830,1694292879.082553,-0.003612456377595663,-0.0005913665518164635,-0.002584211528301239,-0.06690975278615952,0.051071226596832275,-0.9951171875,
0,2023-09-09 15:54:18.2070,02:22,10,1,2023-09-09 15:54:39.5130,1694292879.513136,-0.0019089538836851716,-0.0033241575583815575,-0.0018998990999534726,0.1928558349609375,-0.0109710693359375,-0.9820098876953125,113.96124267578125,-28.069793701171875,-38.45951843261719,2023-09-09 15:54:39.1820,1694292879.182427,-0.012777059338986874,-0.0053696101531386375,-0.004814675077795982,-0.06477352231740952,0.050521910190582275,-0.9936370849609375,
0,2023-09-09 15:54:18.2070,02:22,10,1,2023-09-09 15:54:39.6090,1694292879.609374,0.0004889564006589353,-0.002150502521544695,-0.0007930893916636705,0.19219970703125,-0.01177978515625,-0.9824371337890625,113.74900817871094,-27.5174560546875,-38.545501708984375,2023-09-09 15:54:39.2820,1694292879.282223,-0.0007492918521165848,0.00021237507462501526,-0.0016728778136894107,-0.07206722348928452,0.049774233251810074,-0.999298095703125,
0,2023-09-09 15:54:18.2070,02:22,10,1,2023-09-09 15:54:39.7130,1694292879.712974,-0.0017326525412499905,-0.0008040083339437842,-0.0020221380982548,0.1917266845703125,-0.01239013671875,-0.9842071533203125,113.99298095703125,-27.691162109375,-38.47535705566406,2023-09-09 15:54:39.3820,1694292879.3819919,-0.0055787344463169575,0.00013288017362356186,-0.002349686808884144,-0.07049556821584702,0.048248350620269775,-0.996307373046875,
0,2023-09-09 15:54:18.2070,02:22,10,1,2023-09-09 15:54:39.8130,1694292879.8129458,0.0014900385867804289,-0.005549495108425617,-0.0036192359402775764,0.1898345947265625,-0.0115203857421875,-0.9827117919921875,113.84989929199219,-27.58673095703125,-38.44366455078125,2023-09-09 15:54:39.4820,1694292879.4818668,0.010939588770270348,0.0002187667414546013,-0.0018039053538814187,-0.07093807309865952,0.06254583597183228,-0.99481201171875,
0,2023-09-09 15:54:18.2070,02:22,10,1,2023-09-09 15:54:39.9130,1694292879.912973,0.0016335829859599471,-0.003878627670928836,-0.0023433153983205557,0.1915435791015625,-0.0115814208984375,-0.9815216064453125,113.66691589355469,-27.541107177734375,-38.32298278808594,2023-09-09 15:54:39.5820,1694292879.5818071,-0.017696982249617577,0.004327225498855114,-0.002595729660242796,-0.07157893478870392,0.05366520956158638,-0.9939116835594177,
0,2023-09-09 15:54:18.2070,02:22,10,1,2023-09-09 15:54:40.0130,1694292880.0129461,-0.001216531964018941,-0.002380599733442068,-0.0025129588320851326,0.193359375,-0.0111541748046875,-0.9832611083984375,113.88192749023438,-27.542373657226562,-38.24772644042969,2023-09-09 15:54:39.6820,1694292879.681524,0.0047823600471019745,-0.0016049658879637718,-0.00023969769245013595,-0.06744381040334702,0.055969297885894775,-0.9935455322265625,
0,2023-09-09 15:54:18.2070,02:22,10,1,2023-09-09 15:54:40.1130,1694292880.112949,-0.0004498079069890082,-0.0037348170299082994,-0.0021134845446795225,0.1934051513671875,-0.0119781494140625,-0.983795166015625,113.82589721679688,-27.746749877929688,-38.337493896484375,2023-09-09 15:54:39.7810,1694292879.781248,-0.016586512327194214,0.007368423044681549,-0.0010916761821135879,-0.06738276779651642,0.03904729336500168,-0.9895324110984802,
0,2023-09-09 15:54:18.2070,02:22,10,1,2023-09-09 15:54:40.2130,1694292880.213049,-0.0008250473183579743,-0.004923386033624411,-0.004730040207505226,0.1926727294921875,-0.0106353759765625,-0.9842071533203125,113.76766967773438,-27.656219482421875,-38.27667236328125,2023-09-09 15:54:39.8810,1694292879.881233,-0.031866997480392456,-0.0027258899062871933,-0.0008193346438929439,-0.06953426450490952,0.049942079931497574,-0.987762451171875,
0,2023-09-09 15:54:18.2070,02:22,10,1,2023-09-09 15:54:40.3100,1694292880.310305,-0.0011885687708854675,-0.005906092468649149,-0.0007731156656518579,0.19097900390625,-0.010894775390625,-0.9800567626953125,113.74383544921875,-27.693511962890625,-38.33734130859375,2023-09-09 15:54:39.9810,1694292879.980888,-0.013709764927625656,0.002561949659138918,8.717214222997427e-05,-0.07543940842151642,0.055252134799957275,-0.9864501357078552,
0,2023-09-09 15:54:18.2070,02:22,10,1,2023-09-09 15:54:40.4130,1694292880.412847,-0.00024394555657636374,-0.003102582646533847,-0.001725728390738368,0.1928253173828125,-0.0099945068359375,-0.9811553955078125,113.85214233398438,-27.808456420898438,-38.1553955078125,2023-09-09 15:54:40.0810,1694292880.0810618,0.0142170749604702,0.011273415759205818,0.004799835383892059,-0.07763668149709702,0.06530767306685448,-0.992340087890625,
0,2023-09-09 15:54:18.2070,02:22,10,1,2023-09-09 15:54:40.5130,1694292880.512947,-0.0007523429812863469,-0.0019225359428673983,-0.0009523464250378311,0.1915283203125,-0.0125579833984375,-0.981170654296875,113.75758361816406,-27.59814453125,-38.33131408691406,2023-09-09 15:54:40.1810,1694292880.181344,-0.0031360830180346966,-0.0018256092444062233,-0.00114260904956609,-0.06898494809865952,0.053237974643707275,-0.9913787841796875,
0,2023-09-09 15:54:18.2070,02:22,10,1,2023-09-09 15:54:40.6130,1694292880.61304,0.0014658038271591067,-0.004628574009984732,-0.0014721954939886928,0.1898651123046875,-0.0120849609375,-0.9825286865234375,113.75590515136719,-27.648834228515625,-38.33149719238281,2023-09-09 15:54:40.2810,1694292880.280596,0.009273115545511246,0.0024832533672451973,-0.005457562860101461,-0.06796260178089142,0.06054693087935448,-0.992645263671875,
0,2023-09-09 15:54:18.2070,02:22,10,1,2023-09-09 15:54:40.7110,1694292880.7114,-0.001939313835464418,-0.003578489413484931,-0.0035630431957542896,0.193389892578125,-0.009796142578125,-0.98211669921875,113.83088684082031,-27.756118774414062,-38.34080505371094,2023-09-09 15:54:40.3800,1694292880.380364,-0.011750676669180393,-0.0032987352460622787,-0.00063803989905864,-0.06587214022874832,0.05462652072310448,-0.9967955946922302,
0,2023-09-09 15:54:18.2070,02:22,10,1,2023-09-09 15:54:40.8130,1694292880.8128672,-0.0035353463608771563,-0.004568386357277632,-0.001966211711987853,0.19573974609375,-0.0116729736328125,-0.9833831787109375,113.82264709472656,-27.734466552734375,-38.411895751953125,2023-09-09 15:54:40.4800,1694292880.4801521,-0.014519032090902328,-0.0025373389944434166,0.00020258681615814567,-0.06871028244495392,0.04969793185591698,-0.9935149550437927,
0,2023-09-09 15:54:18.2070,02:22,10,1,2023-09-09 15:54:40.9130,1694292880.912873,-0.0037803570739924908,-0.004766259342432022,0.00039254993316717446,0.190185546875,-0.0126953125,-0.9843292236328125,113.80490112304688,-27.879608154296875,-38.78523254394531,2023-09-09 15:54:40.5800,1694292880.580064,0.0170906912535429,-0.0002864347770810127,-0.003860930912196636,-0.06709285825490952,0.05493169650435448,-0.9918060302734375,
0,2023-09-09 15:54:18.2070,02:22,10,1,2023-09-09 15:54:41.0130,1694292881.012969,-0.0010301107540726662,-0.005255748517811298,-0.0017973673529922962,0.1904449462890625,-0.0138092041015625,-0.9839019775390625,113.83126831054688,-27.934036254882812,-38.605010986328125,2023-09-09 15:54:40.6800,1694292880.679959,-0.018332812935113907,0.006867349147796631,0.002789248712360859,-0.07307429611682892,0.05024724453687668,-0.9917601943016052,
0,2023-09-09 15:54:18.2070,02:22,10,1,2023-09-09 15:54:41.1130,1694292881.112941,0.0010008158860728145,-0.003418167121708393,-0.001805889536626637,0.1942596435546875,-0.011932373046875,-0.98284912109375,113.91867065429688,-27.883621215820312,-38.390625,2023-09-09 15:54:40.7800,1694292880.779747,-0.016487041488289833,0.003172878175973892,-0.0014242383185774088,-0.07287593930959702,0.05491643771529198,-0.9902496337890625,
0,2023-09-09 15:54:18.2070,02:22,10,1,2023-09-09 15:54:41.2130,1694292881.21285,-0.0020903151016682386,-0.003070092061534524,-0.003209641668945551,0.1943817138671875,-0.0132904052734375,-0.9833221435546875,113.90229797363281,-27.846725463867188,-38.446136474609375,2023-09-09 15:54:40.8800,1694292880.879513,0.0010751732625067234,0.003105500712990761,-0.005500739440321922,-0.07148738205432892,0.05293279141187668,-0.9869384169578552,
0,2023-09-09 15:54:18.2070,02:22,10,1,2023-09-09 15:54:41.3130,1694292881.312918,-0.0017145430902019143,-0.0022623552940785885,0.00032650353386998177,0.1895599365234375,-0.0135040283203125,-0.984100341796875,113.72398376464844,-27.58270263671875,-38.40840148925781,2023-09-09 15:54:40.9790,1694292880.979378,0.012551533058285713,0.004614713601768017,-0.0008547214092686772,-0.06900019943714142,0.059112612158060074,-0.9893035888671875,
0,2023-09-09 15:54:18.2070,02:22,10,1,2023-09-09 15:54:41.4130,1694292881.413235,0.00045673211570829153,-0.005858421791344881,-0.0023521038237959146,0.1923370361328125,-0.0126953125,-0.9846954345703125,113.65655517578125,-27.593475341796875,-38.32896423339844,2023-09-09 15:54:41.0790,1694292881.079407,-0.006055906414985657,0.005329373758286238,-0.000778321991674602,-0.07196041196584702,0.05383306369185448,-0.9864044189453125,
0,2023-09-09 15:54:18.2070,02:22,10,1,2023-09-09 15:54:41.5130,1694292881.512747,-0.002496979897841811,-0.0014146711910143495,-0.002639192622154951,0.1955413818359375,-0.0118255615234375,-0.9845123291015625,113.51873779296875,-27.414657592773438,-38.092803955078125,2023-09-09 15:54:41.1790,1694292881.17911,-0.008992774412035942,-0.008905622176826,0.0014583005104213953,-0.06814571470022202,0.054229795932769775,-0.9927215576171875,
0,2023-09-09 15:54:18.2070,02:22,10,1,2023-09-09 15:54:41.6130,1694292881.613056,-0.0003842941368930042,-0.003917243797332048,-0.0009392969077453017,0.1913604736328125,-0.0121002197265625,-0.9828948974609375,113.78044128417969,-27.448410034179688,-38.24189758300781,2023-09-09 15:54:41.2790,1694292881.278861,0.012997212819755077,0.0019387700594961643,-0.0013260343112051487,-0.06890864670276642,0.05310063436627388,-0.9936980605125427,
0,2023-09-09 15:54:18.2070,02:22,10,1,2023-09-09 15:54:41.7130,1694292881.712898,-0.0008474178612232208,-0.004200337454676628,-0.004577973857522011,0.1885986328125,-0.012451171875,-0.9811248779296875,113.77099609375,-27.680648803710938,-38.20674133300781,2023-09-09 15:54:41.3790,1694292881.37887,0.020448138937354088,0.005511267110705376,-0.0056168860755860806,-0.07067867368459702,0.054550234228372574,-0.995361328125,
0,2023-09-09 15:54:18.2070,02:22,10,1,2023-09-09 15:54:41.8130,1694292881.812899,-0.0011116034584119916,-0.00418302696198225,-0.002261822810396552,0.1930389404296875,-0.01214599609375,-0.98175048828125,113.77542114257812,-27.711929321289062,-38.35850524902344,2023-09-09 15:54:41.4790,1694292881.47856,6.936397403478622e-05,0.0055402955040335655,0.0028596892952919006,-0.07200618088245392,0.05061345919966698,-0.9998626112937927,
0,2023-09-09 15:54:18.2070,02:22,10,1,2023-09-09 15:54:41.9130,1694292881.913055,-0.002511360915377736,-0.002433063928037882,-0.00012383698776829988,0.193817138671875,-0.011871337890625,-0.9819488525390625,113.89808654785156,-27.800765991210938,-38.1531982421875,2023-09-09 15:54:41.5780,1694292881.57848,0.014515681192278862,0.002532521728426218,-0.0013800631277263165,-0.06855770200490952,0.04708867892622948,-0.99365234375,
0,2023-09-09 15:54:18.2070,02:22,10,1,2023-09-09 15:54:42.0130,1694292882.0126228,-0.00028309403569437563,-0.003224289044737816,-0.0014002900570631027,0.190582275390625,-0.0135345458984375,-0.9833221435546875,113.826416015625,-27.726058959960938,-38.25697326660156,2023-09-09 15:54:41.6780,1694292881.678217,0.0032746780198067427,0.0008348897099494934,0.00012971600517630577,-0.06553645431995392,0.04977422580122948,-0.9936980605125427,
0,2023-09-09 15:54:18.2070,02:22,10,1,2023-09-09 15:54:42.1130,1694292882.112701,-0.0003020024741999805,-0.004353735595941544,-0.0037116475868970156,0.190399169921875,-0.0121307373046875,-0.9836578369140625,113.82015991210938,-27.841476440429688,-38.40696716308594,2023-09-09 15:54:41.7780,1694292881.778121,-0.01192411594092846,-0.004064260981976986,-0.0025207283906638622,-0.06419368088245392,0.03947454318404198,-0.9934234619140625,
0,2023-09-09 15:54:18.2070,02:22,10,1,2023-09-09 15:54:42.2130,1694292882.212795,0.0007757788407616317,-0.005540973041206598,-0.0015808524331077933,0.1951446533203125,-0.0114593505859375,-0.983001708984375,113.91085815429688,-27.841903686523438,-38.4188232421875,2023-09-09 15:54:41.8780,1694292881.877812,-0.011178363114595413,0.00404865900054574,-0.0020886636339128017,-0.06706234067678452,0.04292302951216698,-0.9934844970703125,
0,2023-09-09 15:54:18.2070,02:22,10,1,2023-09-09 15:54:42.3130,1694292882.312748,-0.0024956483393907547,-0.005681055132299662,0.0006404902087524533,0.1928863525390625,-0.0131988525390625,-0.9828338623046875,113.92845153808594,-27.953811645507812,-38.47200012207031,2023-09-09 15:54:41.9780,1694292881.977706,-0.031067848205566406,-0.004973198287189007,-0.0033723406959325075,-0.06217952072620392,0.024856626987457275,-0.9902801513671875,
0,2023-09-09 15:54:18.2070,02:22,10,1,2023-09-09 15:54:42.4130,1694292882.412698,-0.0006929545197635889,-0.0037832865491509438,-0.0017235978739336133,0.18914794921875,-0.0117950439453125,-0.9827117919921875,113.88272094726562,-27.95220947265625,-38.443756103515625,2023-09-09 15:54:42.0780,1694292882.0778341,-0.008872665464878082,0.0016756495460867882,-0.0026943664997816086,-0.06970211118459702,0.05209356173872948,-0.9937896728515625,
0,2023-09-09 15:54:18.2070,02:22,10,1,2023-09-09 15:54:42.5130,1694292882.5125551,-0.00013182646944187582,-0.006625412032008171,-0.003894606838002801,0.192474365234375,-0.0112457275390625,-0.983154296875,113.93412780761719,-27.908920288085938,-38.650238037109375,2023-09-09 15:54:42.1770,1694292882.1774778,0.017970001325011253,-0.002080739475786686,3.583962097764015e-05,-0.06913753598928452,0.058807432651519775,-0.998443603515625,
0,2023-09-09 15:54:18.2070,02:22,10,1,2023-09-09 15:54:42.6130,1694292882.612774,-0.0015606123488396406,-0.0034615767654031515,0.00040027310024015605,0.1958770751953125,-0.0117340087890625,-0.98284912109375,113.91769409179688,-27.85504150390625,-38.48762512207031,2023-09-09 15:54:42.2770,1694292882.277236,0.031058572232723236,0.005572786554694176,-4.792236723005772e-07,-0.06890865415334702,0.058029238134622574,-0.9942626953125,
0,2023-09-09 15:54:18.2070,02:22,10,1,2023-09-09 15:54:42.7130,1694292882.712812,-0.00045673211570829153,-0.005636313930153847,0.002413356676697731,0.19158935546875,-0.0123443603515625,-0.985260009765625,113.89848327636719,-27.841354370117188,-38.475677490234375,2023-09-09 15:54:42.3770,1694292882.377242,0.024867987260222435,-0.0004998864606022835,-0.0005316134775057435,-0.06858821958303452,0.060485899448394775,-0.9915008544921875,
0,2023-09-09 15:54:18.2070,02:22,10,1,2023-09-09 15:54:42.8130,1694292882.8129082,1.5446334145963192e-05,-0.005584382452070713,-0.004353735595941544,0.1882171630859375,-0.01092529296875,-0.981781005859375,113.75665283203125,-27.763031005859375,-38.74052429199219,2023-09-09 15:54:42.4770,1694292882.4769769,0.013849823735654354,0.006797973532229662,-0.002118657575920224,-0.06892389804124832,0.05061345919966698,-0.9884032607078552,
0,2023-09-09 15:54:18.2070,02:22,10,1,2023-09-09 15:54:42.9130,1694292882.912868,0.0023465112317353487,-0.004066114313900471,-0.004673581570386887,0.191925048828125,-0.01104736328125,-0.9819183349609375,113.65083312988281,-27.613754272460938,-38.586029052734375,2023-09-09 15:54:42.5770,1694292882.576968,0.006085178814828396,-0.0007373075932264328,-0.0035252394154667854,-0.06510921567678452,0.05091863498091698,-0.993560791015625,
0,2023-09-09 15:54:18.2070,02:22,10,1,2023-09-09 15:54:43.0130,1694292883.012703,0.0004695153038483113,-0.00390259618870914,0.0008335694437846541,0.1923675537109375,-0.0118408203125,-0.9830474853515625,113.74372863769531,-27.679580688476562,-38.55766296386719,2023-09-09 15:54:42.6770,1694292882.677006,-0.001362617826089263,0.003302441444247961,0.0005095827509649098,-0.06861873716115952,0.040969908237457275,-0.999053955078125,
0,2023-09-09 15:54:18.2070,02:22,10,1,2023-09-09 15:54:43.1120,1694292883.112471,-0.0003105245705228299,-0.005195294506847858,-0.0005129248020239174,0.1891632080078125,-0.0118865966796875,-0.983642578125,113.701416015625,-27.563720703125,-38.23907470703125,2023-09-09 15:54:42.7760,1694292882.7763848,-0.0052598873153328896,0.0030124234035611153,-0.0008190682856366038,-0.06982418149709702,0.039093077182769775,-0.991943359375,
0,2023-09-09 15:54:18.2070,02:22,10,1,2023-09-09 15:54:43.2130,1694292883.212974,0.0006498112925328314,-0.003228283952921629,-0.0011883024126291275,0.1912384033203125,-0.0123748779296875,-0.9829559326171875,113.83181762695312,-27.89825439453125,-37.3956298828125,2023-09-09 15:54:42.8760,1694292882.8762531,-0.007692086510360241,-0.0027145715430378914,-0.0007871437119320035,-0.06539913266897202,0.040710508823394775,-0.996002197265625,
0,2023-09-09 15:54:18.2070,02:22,10,1,2023-09-09 15:54:43.3120,1694292883.311586,-0.0013515542959794402,-0.0023105584550648928,-0.003133208956569433,0.193939208984375,-0.011688232421875,-0.983001708984375,113.69056701660156,-27.586959838867188,-38.23725891113281,2023-09-09 15:54:42.9760,1694292882.9761682,-0.006685012020170689,-0.0043044788762927055,-0.00554361566901207,-0.060989342629909515,0.037887636572122574,-0.995086669921875,
0,2023-09-09 15:54:18.2070,02:22,10,1,2023-09-09 15:54:43.4130,1694292883.4127479,0.0018197379540652037,-0.0012812467757612467,-0.001133174984715879,0.19091796875,-0.0110931396484375,-0.9811859130859375,113.806640625,-27.683425903320312,-38.23152160644531,2023-09-09 15:54:43.0760,1694292883.076044,0.007623753510415554,0.006014205515384674,0.0026364829391241074,-0.06526180356740952,0.05014043673872948,-0.9945068359375,
0,2023-09-09 15:54:18.2070,02:22,10,1,2023-09-09 15:54:43.5110,1694292883.5112891,-0.0002508697798475623,-0.00469595193862915,-0.002828543307259679,0.190673828125,-0.01153564453125,-0.9819793701171875,113.70552062988281,-27.406326293945312,-38.02836608886719,2023-09-09 15:54:43.1760,1694292883.1758041,0.004464046098291874,-0.006600922904908657,0.005034726113080978,-0.06568904966115952,0.04670720919966698,-0.9963531494140625,
0,2023-09-09 15:54:18.2070,02:22,10,1,2023-09-09 15:54:43.6130,1694292883.612873,0.0005989448982290924,-0.005190767347812653,-0.0035414716694504023,0.193267822265625,-0.010894775390625,-0.9820098876953125,113.75132751464844,-27.574676513671875,-38.124664306640625,2023-09-09 15:54:43.2760,1694292883.275773,0.011359436437487602,-0.0034007346257567406,0.0006967363297007978,-0.06515499204397202,0.03912359103560448,-0.9954376220703125,
0,2023-09-09 15:54:18.2070,02:22,10,1,2023-09-09 15:54:43.7130,1694292883.712817,-0.001050350721925497,-0.0035273567773401737,-0.0037609159480780363,0.191497802734375,-0.0106048583984375,-0.981109619140625,113.86445617675781,-27.948150634765625,-38.39056396484375,2023-09-09 15:54:43.3760,1694292883.375503,0.014079521410167217,0.0028889859095215797,0.0012688166461884975,-0.06645198911428452,0.04194646701216698,-0.9952239990234375,
0,2023-09-09 15:54:18.2070,02:22,10,1,2023-09-09 15:54:43.8130,1694292883.81278,-0.00014168016787152737,-0.004240817856043577,-0.0028581044171005487,0.19000244140625,-0.01068115234375,-0.97967529296875,113.83514404296875,-27.611495971679688,-38.2156982421875,2023-09-09 15:54:43.4750,1694292883.475316,0.0027452416252344847,0.007220883388072252,-0.0003762844717130065,-0.06585689634084702,0.03509527072310448,-0.9929351806640625,
0,2023-09-09 15:54:18.2070,02:22,10,1,2023-09-09 15:54:43.9130,1694292883.9128342,-0.0003456783015280962,-0.004707936197519302,-0.002837331732735038,0.1934814453125,-0.01068115234375,-0.9791259765625,113.78359985351562,-27.738967895507812,-38.104156494140625,2023-09-09 15:54:43.5750,1694292883.575101,-0.013589190319180489,0.005696623120456934,-0.0032549286261200905,-0.06716914474964142,0.03526311740279198,-0.9935760498046875,
0,2023-09-09 15:54:18.2070,02:22,10,1,2023-09-09 15:54:44.0130,1694292884.012549,0.0011685950448736548,-0.0036786242853850126,0.001588841900229454,0.1938018798828125,-0.0117950439453125,-0.9815673828125,113.8363037109375,-27.919464111328125,-38.34715270996094,2023-09-09 15:54:43.6750,1694292883.674896,0.011619027704000473,0.006827268283814192,-0.0005779523635283113,-0.06602474302053452,0.04583745822310448,-0.98895263671875,
0,2023-09-09 15:54:18.2070,02:22,10,1,2023-09-09 15:54:44.1120,1694292884.111795,-0.005311408545821905,-0.0034961977507919073,-0.002270611235871911,0.19122314453125,-0.0115966796875,-0.9818878173828125,113.67613220214844,-27.578704833984375,-38.69963073730469,2023-09-09 15:54:43.7750,1694292883.774833,0.00873628817498684,0.009557540528476238,-0.003888727631419897,-0.06993099302053452,0.048706114292144775,-0.9899444580078125,
0,2023-09-09 15:54:18.2070,02:22,10,1,2023-09-09 15:54:44.2130,1694292884.212883,0.0046448190696537495,-0.0030178942251950502,-0.0016772588714957237,0.193634033203125,-0.011932373046875,-0.9832763671875,113.909423828125,-27.784988403320312,-38.607666015625,2023-09-09 15:54:43.8750,1694292883.874726,0.016081752255558968,0.005895028822124004,-0.0012553607812151313,-0.06901545822620392,0.047424376010894775,-0.9889984130859375,
0,2023-09-09 15:54:18.2070,02:22,10,1,2023-09-09 15:54:44.3130,1694292884.312845,-0.0007952199084684253,-0.0018285263795405626,-9.347695595351979e-05,0.1945953369140625,-0.01251220703125,-0.9840545654296875,113.87559509277344,-27.7830810546875,-38.59724426269531,2023-09-09 15:54:43.9740,1694292883.974451,0.014014141634106636,0.005106067284941673,-0.00134527578484267,-0.06860347092151642,0.04689031466841698,-0.9912413954734802,
0,2023-09-09 15:54:18.2070,02:22,10,1,2023-09-09 15:54:44.4130,1694292884.4127688,0.0016207997687160969,-0.005155613645911217,-0.0026754115242511034,0.1919097900390625,-0.0121307373046875,-0.9830780029296875,113.93081665039062,-27.909347534179688,-38.57304382324219,2023-09-09 15:54:44.0750,1694292884.074665,-0.0010894439183175564,0.005453343503177166,-0.0004914662567898631,-0.06657404452562332,0.04643255099654198,-0.9918212294578552,
0,2023-09-09 15:54:18.2070,02:22,10,1,2023-09-09 15:54:44.5130,1694292884.512864,-0.002031192881986499,-0.0049763829447329044,-0.0008852347382344306,0.191864013671875,-0.0112762451171875,-0.9835662841796875,113.76203918457031,-27.615890502929688,-38.48042297363281,2023-09-09 15:54:44.1740,1694292884.174057,-0.005152163095772266,0.004497934598475695,9.326403960585594e-05,-0.06764215975999832,0.03445440158247948,-0.9885711073875427,
0,2023-09-09 15:54:18.2070,02:22,10,1,2023-09-09 15:54:44.6130,1694292884.6126242,-0.0012796488590538502,-0.003144926857203245,-0.0015694007743149996,0.1932373046875,-0.01153564453125,-0.98150634765625,113.71237182617188,-27.439529418945312,-38.22691345214844,2023-09-09 15:54:44.2740,1694292884.2742748,0.0036495178937911987,0.0012636585161089897,-0.0027457657270133495,-0.06263729184865952,0.05113225802779198,-0.99566650390625,
0,2023-09-09 15:54:18.2070,02:22,10,1,2023-09-09 15:54:44.7120,1694292884.712377,-0.0034642398823052645,-0.0041822283528745174,0.0009901633020490408,0.19287109375,-0.01190185546875,-0.98406982421875,113.82958984375,-27.672332763671875,-38.065582275390625,2023-09-09 15:54:44.3740,1694292884.373863,0.0007034626323729753,-0.007807733491063118,-0.00397225096821785,-0.062271080911159515,0.041885435581207275,-0.9963531494140625,
0,2023-09-09 15:54:18.2070,02:22,10,1,2023-09-09 15:54:44.8130,1694292884.8126822,0.0010980212828144431,-0.004381432663649321,-0.0015608787070959806,0.1893157958984375,-0.0115203857421875,-0.981689453125,113.66815185546875,-27.40167236328125,-38.3153076171875,2023-09-09 15:54:44.4740,1694292884.473773,0.0009026669431477785,-0.0027147047221660614,-0.0048621464520692825,-0.06266780942678452,0.03729253634810448,-0.9903411865234375,
0,2023-09-09 15:54:18.2070,02:22,10,1,2023-09-09 15:54:44.9130,1694292884.912712,0.0034727619495242834,-0.0040948763489723206,-0.0033811493776738644,0.19061279296875,-0.010711669921875,-0.9815673828125,113.81449890136719,-27.61749267578125,-37.919158935546875,2023-09-09 15:54:44.5740,1694292884.573676,-0.007095138542354107,-0.0023803450167179108,-0.00039692409336566925,-0.06185908615589142,0.04432683810591698,-0.9960479140281677,
0,2023-09-09 15:54:18.2070,02:22,10,1,2023-09-09 15:54:45.0120,1694292885.01248,0.0006138586322776973,-0.005592638161033392,-0.0034317492973059416,0.194000244140625,-0.0112457275390625,-0.9807281494140625,113.69625854492188,-27.786041259765625,-38.011505126953125,2023-09-09 15:54:44.6730,1694292884.673413,0.012157052755355835,-0.003193275071680546,-0.000242427340708673,-0.06565853208303452,0.04132085666060448,-0.998992919921875,
0,2023-09-09 15:54:18.2070,02:22,10,1,2023-09-09 15:54:45.1130,1694292885.112615,0.0004391552647575736,-0.002296443795785308,0.0002633866388350725,0.1922760009765625,-0.01251220703125,-0.9837188720703125,113.682373046875,-27.471923828125,-38.22862243652344,2023-09-09 15:54:44.7730,1694292884.773185,0.012063908390700817,0.006788119673728943,0.0032293694093823433,-0.06579586118459702,0.050109922885894775,-1.0009002685546875,
0,2023-09-09 15:54:18.2070,02:22,10,1,2023-09-09 15:54:45.2130,1694292885.212786,6.231796578504145e-05,-0.004219246096909046,-0.0023252058308571577,0.1906280517578125,-0.013092041015625,-0.98345947265625,113.78010559082031,-27.772171020507812,-38.32093811035156,2023-09-09 15:54:44.8730,1694292884.87307,0.013187962584197521,0.0008440772071480751,0.002703561447560787,-0.06567378342151642,0.04423528537154198,-0.995849609375,
0,2023-09-09 15:54:18.2070,02:22,10,1,2023-09-09 15:54:45.3130,1694292885.312654,-0.0006317017832770944,-0.0035092474427074194,-0.0024402544368058443,0.191680908203125,-0.0106964111328125,-0.98187255859375,113.83697509765625,-27.687576293945312,-38.20939636230469,2023-09-09 15:54:44.9730,1694292884.972958,0.007106567732989788,0.00018401257693767548,0.003022375050932169,-0.06373591721057892,0.041992247104644775,-0.99566650390625,
0,2023-09-09 15:54:18.2070,02:22,10,1,2023-09-09 15:54:45.4130,1694292885.412675,0.00027377295191399753,-0.004024036228656769,-0.00047058056225068867,0.1940765380859375,-0.0117645263671875,-0.984283447265625,113.87416076660156,-27.691802978515625,-38.70796203613281,2023-09-09 15:54:45.0730,1694292885.072828,0.002704428508877754,0.0025708707980811596,-0.003158722072839737,-0.061782799661159515,0.034881651401519775,-0.99163818359375,
0,2023-09-09 15:54:18.2070,02:22,10,1,2023-09-09 15:54:45.5130,1694292885.512712,-0.00029774141148664057,-0.004609665367752314,-0.0004881574132014066,0.1921234130859375,-0.0127105712890625,-0.9839019775390625,113.76605224609375,-27.678024291992188,-38.476287841796875,2023-09-09 15:54:45.1740,1694292885.173555,0.019239062443375587,0.007243121042847633,-0.000989643856883049,-0.061508141458034515,0.039901793003082275,-0.9961700439453125,
0,2023-09-09 15:54:18.2070,02:22,10,1,2023-09-09 15:54:45.6130,1694292885.612527,-0.0003760383406188339,-0.004038417246192694,-0.0017539578257128596,0.191375732421875,-0.0125274658203125,-0.9845733642578125,113.72450256347656,-27.804122924804688,-38.681732177734375,2023-09-09 15:54:45.2720,1694292885.27241,-0.00407617911696434,-0.00258434284478426,-0.0011679092422127724,-0.06282038986682892,0.04063421115279198,-0.9922179579734802,
0,2023-09-09 15:54:18.2070,02:22,10,1,2023-09-09 15:54:45.7130,1694292885.712656,-0.0010157296201214194,-0.003481017891317606,-0.0018128136871382594,0.193939208984375,-0.01190185546875,-0.9830780029296875,113.7322998046875,-27.451019287109375,-38.84132385253906,2023-09-09 15:54:45.3720,1694292885.372469,-0.013343647122383118,-0.0051046255975961685,-0.0001985518028959632,-0.06553646177053452,0.032318174839019775,-0.9923553466796875,
0,2023-09-09 15:54:18.2070,02:22,10,1,2023-09-09 15:54:45.8120,1694292885.8120189,-0.00063356600003317,-0.004548412747681141,0.0009355684742331505,0.19384765625,-0.013580322265625,-0.9843597412109375,113.72474670410156,-27.551193237304688,-38.3798828125,2023-09-09 15:54:45.4720,1694292885.4721022,0.012029887177050114,-0.002357308752834797,-0.005550174042582512,-0.06292720884084702,0.046798765659332275,-0.9915924072265625,
0,2023-09-09 15:54:18.2070,02:22,10,1,2023-09-09 15:54:45.9130,1694292885.9125009,-0.00028282770654186606,-0.004089816473424435,-0.00012996226723771542,0.1884765625,-0.0128326416015625,-0.982879638671875,113.69091796875,-27.631576538085938,-38.448638916015625,2023-09-09 15:54:45.5720,1694292885.572015,-0.009485325776040554,0.00018774159252643585,-0.003647445235401392,-0.06311030685901642,0.03883367404341698,-0.9907073378562927,
0,2023-09-09 15:54:18.2070,02:22,10,1,2023-09-09 15:54:46.0130,1694292886.0126371,-0.00013662016135640442,-0.0067604342475533485,-0.0035361452028155327,0.19049072265625,-0.0120086669921875,-0.9835662841796875,113.66268920898438,-27.627197265625,-38.34783935546875,2023-09-09 15:54:45.6720,1694292885.671732,0.009797225706279278,0.0011170515790581703,0.00028381324955262244,-0.061279259622097015,0.043335020542144775,-0.9915008544921875,
